"","X1","X1_1","pid","condition","correct_button","rw","rt","response","age","grade","gender","condition_id","trial_accuracy","timepoint","School.Year","time","max","min","norm"
"1",6740,6763,"ADMIN-UCSF-bo028","BOXED_Feature_4","correct",1370,370.878040790558,1,8,3,"M",21,NA,1,2017,2016-11-08,1390,190,0.983333333333333
"2",6741,6764,"ADMIN-UCSF-bo028","BOXED_Feature_12","correct",1350,665.767967700958,1,8,3,"M",13,NA,1,2017,2016-11-08,1350,360,1
"3",6742,6765,"ADMIN-UCSF-bo028","BOXED_Feature_12","correct",1070,680.916011333466,1,8,3,"M",20,NA,1,2017,2016-11-08,1350,360,0.717171717171717
"4",6743,6766,"ADMIN-UCSF-bo028","BOXED_Feature_12","correct",990,780.526995658875,1,8,3,"M",24,NA,1,2017,2016-11-08,1350,360,0.636363636363636
"5",6744,6767,"ADMIN-UCSF-bo028","BOXED_Conjunction_4","correct",1250,789.223968982697,1,8,3,"M",24,NA,1,2017,2016-11-08,1890,190,0.623529411764706
"6",6745,6768,"ADMIN-UCSF-bo028","BOXED_Feature_12","correct",1330,847.604990005493,1,8,3,"M",9,NA,1,2017,2016-11-08,1350,360,0.97979797979798
"7",6746,6769,"ADMIN-UCSF-bo028","BOXED_Feature_4","correct",1360,852.249979972839,1,8,3,"M",22,NA,1,2017,2016-11-08,1390,190,0.975
"8",6747,6770,"ADMIN-UCSF-bo028","BOXED_Conjunction_4","correct",1360,865.859985351562,1,8,3,"M",10,NA,1,2017,2016-11-08,1890,190,0.688235294117647
"9",6748,6771,"ADMIN-UCSF-bo028","BOXED_Feature_12","correct",1340,868.900001049042,1,8,3,"M",14,NA,1,2017,2016-11-08,1350,360,0.98989898989899
"10",6749,6772,"ADMIN-UCSF-bo028","BOXED_Feature_4","correct",1080,872.00403213501,1,8,3,"M",3,NA,1,2017,2016-11-08,1390,190,0.741666666666667
"11",6750,6773,"ADMIN-UCSF-bo028","BOXED_Feature_12","correct",1030,913.86204957962,1,8,3,"M",23,NA,1,2017,2016-11-08,1350,360,0.676767676767677
"12",6751,6774,"ADMIN-UCSF-bo028","BOXED_Feature_4","correct",1390,920.166015625,1,8,3,"M",24,NA,1,2017,2016-11-08,1390,190,1
"13",6752,6775,"ADMIN-UCSF-bo028","BOXED_Conjunction_4","correct",1350,921.117007732391,1,8,3,"M",15,NA,1,2017,2016-11-08,1890,190,0.682352941176471
"14",6753,6776,"ADMIN-UCSF-bo028","BOXED_Feature_4","correct",1220,937.597990036011,1,8,3,"M",17,NA,1,2017,2016-11-08,1390,190,0.858333333333333
"15",6754,6777,"ADMIN-UCSF-bo028","BOXED_Feature_4","correct",1150,939.828038215637,1,8,3,"M",6,NA,1,2017,2016-11-08,1390,190,0.8
"16",6755,6778,"ADMIN-UCSF-bo028","BOXED_Feature_4","correct",1140,953.220963478088,1,8,3,"M",11,NA,1,2017,2016-11-08,1390,190,0.791666666666667
"17",6756,6779,"ADMIN-UCSF-bo028","BOXED_Feature_12","correct",1330,959.717988967896,1,8,3,"M",15,NA,1,2017,2016-11-08,1350,360,0.97979797979798
"18",6757,6780,"ADMIN-UCSF-bo028","BOXED_Feature_12","correct",1340,963.402986526489,1,8,3,"M",8,NA,1,2017,2016-11-08,1350,360,0.98989898989899
"19",6758,6781,"ADMIN-UCSF-bo028","BOXED_Feature_12","correct",1050,965.565979480743,1,8,3,"M",22,NA,1,2017,2016-11-08,1350,360,0.696969696969697
"20",6759,6782,"ADMIN-UCSF-bo028","BOXED_Feature_12","correct",1060,982.973992824554,1,8,3,"M",21,NA,1,2017,2016-11-08,1350,360,0.707070707070707
"21",6760,6783,"ADMIN-UCSF-bo028","BOXED_Conjunction_4","correct",1370,1004.69702482223,1,8,3,"M",14,NA,1,2017,2016-11-08,1890,190,0.694117647058824
"22",6761,6784,"ADMIN-UCSF-bo028","BOXED_Feature_4","correct",1130,1024.37895536423,1,8,3,"M",12,NA,1,2017,2016-11-08,1390,190,0.783333333333333
"23",6762,6785,"ADMIN-UCSF-bo028","BOXED_Conjunction_4","correct",1220,1049.48598146439,1,8,3,"M",22,NA,1,2017,2016-11-08,1890,190,0.605882352941176
"24",6763,6786,"ADMIN-UCSF-bo028","BOXED_Feature_4","correct",1150,1058.51501226425,1,8,3,"M",14,NA,1,2017,2016-11-08,1390,190,0.8
"25",6764,6787,"ADMIN-UCSF-bo028","BOXED_Feature_4","correct",1140,1058.7739944458,1,8,3,"M",7,NA,1,2017,2016-11-08,1390,190,0.791666666666667
"26",6765,6788,"ADMIN-UCSF-bo028","BOXED_Conjunction_12","correct",2300,1059.75300073624,1,8,3,"M",10,NA,1,2017,2016-11-08,4370,760,0.426592797783933
"27",6766,6789,"ADMIN-UCSF-bo028","BOXED_Conjunction_4","correct",1310,1074.20402765274,1,8,3,"M",6,NA,1,2017,2016-11-08,1890,190,0.658823529411765
"28",6767,6790,"ADMIN-UCSF-bo028","BOXED_Feature_4","correct",1150,1076.72303915024,1,8,3,"M",10,NA,1,2017,2016-11-08,1390,190,0.8
"29",6768,6791,"ADMIN-UCSF-bo028","BOXED_Feature_12","correct",1190,1082.30900764465,1,8,3,"M",18,NA,1,2017,2016-11-08,1350,360,0.838383838383838
"30",6769,6792,"ADMIN-UCSF-bo028","BOXED_Feature_4","correct",1130,1088.8170003891,1,8,3,"M",8,NA,1,2017,2016-11-08,1390,190,0.783333333333333
"31",6770,6793,"ADMIN-UCSF-bo028","BOXED_Feature_12","correct",1270,1099.28303956985,1,8,3,"M",17,NA,1,2017,2016-11-08,1350,360,0.919191919191919
"32",6771,6794,"ADMIN-UCSF-bo028","BOXED_Conjunction_4","correct",1390,1161.26704216003,1,8,3,"M",12,NA,1,2017,2016-11-08,1890,190,0.705882352941177
"33",6772,6795,"ADMIN-UCSF-bo028","BOXED_Feature_12","correct",1310,1167.72603988648,1,8,3,"M",10,NA,1,2017,2016-11-08,1350,360,0.95959595959596
"34",6773,6796,"ADMIN-UCSF-bo028","BOXED_Conjunction_4","correct",1230,1179.10701036453,1,8,3,"M",21,NA,1,2017,2016-11-08,1890,190,0.611764705882353
"35",6774,6797,"ADMIN-UCSF-bo028","BOXED_Feature_12","correct",1310,1180.71699142456,1,8,3,"M",16,NA,1,2017,2016-11-08,1350,360,0.95959595959596
"36",6775,6798,"ADMIN-UCSF-bo028","BOXED_Conjunction_4","correct",1320,1194.85199451447,1,8,3,"M",5,NA,1,2017,2016-11-08,1890,190,0.664705882352941
"37",6776,6799,"ADMIN-UCSF-bo028","BOXED_Feature_12","correct",1350,1197.90297746658,1,8,3,"M",7,NA,1,2017,2016-11-08,1350,360,1
"38",6777,6800,"ADMIN-UCSF-bo028","BOXED_Feature_12","correct",1320,1202.83401012421,1,8,3,"M",5,NA,1,2017,2016-11-08,1350,360,0.96969696969697
"39",6778,6801,"ADMIN-UCSF-bo028","BOXED_Conjunction_4","correct",1230,1203.59396934509,1,8,3,"M",17,NA,1,2017,2016-11-08,1890,190,0.611764705882353
"40",6779,6802,"ADMIN-UCSF-bo028","BOXED_Conjunction_4","correct",1300,1277.66001224518,1,8,3,"M",7,NA,1,2017,2016-11-08,1890,190,0.652941176470588
"41",6780,6803,"ADMIN-UCSF-bo028","BOXED_Conjunction_4","correct",1310,1291.08101129532,1,8,3,"M",16,NA,1,2017,2016-11-08,1890,190,0.658823529411765
"42",6781,6804,"ADMIN-UCSF-bo028","BOXED_Conjunction_4","correct",1380,1370.95099687576,1,8,3,"M",13,NA,1,2017,2016-11-08,1890,190,0.7
"43",6782,6805,"ADMIN-UCSF-bo028","BOXED_Conjunction_12","correct",2510,1489.09395933151,1,8,3,"M",18,NA,1,2017,2016-11-08,4370,760,0.484764542936288
"44",6783,6806,"ADMIN-UCSF-bo028","BOXED_Conjunction_12","correct",2270,1541.77898168564,1,8,3,"M",8,NA,1,2017,2016-11-08,4370,760,0.418282548476454
"45",6784,6807,"ADMIN-UCSF-bo028","BOXED_Conjunction_12","correct",2450,1553.88098955154,1,8,3,"M",14,NA,1,2017,2016-11-08,4370,760,0.46814404432133
"46",6785,6808,"ADMIN-UCSF-bo028","BOXED_Conjunction_12","correct",2650,1655.03203868866,1,8,3,"M",23,NA,1,2017,2016-11-08,4370,760,0.523545706371191
"47",6786,6809,"ADMIN-UCSF-bo028","BOXED_Conjunction_12","correct",2280,1734.44896936417,1,8,3,"M",7,NA,1,2017,2016-11-08,4370,760,0.421052631578947
"48",6787,6810,"ADMIN-UCSF-bo028","BOXED_Conjunction_12","correct",2660,1818.88198852539,1,8,3,"M",22,NA,1,2017,2016-11-08,4370,760,0.526315789473684
"49",6788,6811,"ADMIN-UCSF-bo028","BOXED_Conjunction_12","correct",2640,1938.93104791641,1,8,3,"M",24,NA,1,2017,2016-11-08,4370,760,0.520775623268698
"50",6789,6812,"ADMIN-UCSF-bo028","BOXED_Conjunction_12","correct",2440,2336.83300018311,1,8,3,"M",15,NA,1,2017,2016-11-08,4370,760,0.465373961218837
"51",6790,6813,"ADMIN-UCSF-bo028","BOXED_Conjunction_12","correct",2620,2536.8680357933,1,8,3,"M",25,NA,1,2017,2016-11-08,4370,760,0.515235457063712
"52",6791,6814,"ADMIN-UCSF-bo028","BOXED_Feature_4","incorrect",1250,39.63303565979,0,8,3,"M",19,NA,1,2017,2016-11-08,1390,190,0.883333333333333
"53",6792,6815,"ADMIN-UCSF-bo028","BOXED_Feature_4","incorrect",1110,308.828949928284,0,8,3,"M",5,NA,1,2017,2016-11-08,1390,190,0.766666666666667
"54",6793,6816,"ADMIN-UCSF-bo028","BOXED_Feature_4","incorrect",1350,580.639958381653,0,8,3,"M",23,NA,1,2017,2016-11-08,1390,190,0.966666666666667
"55",6794,6817,"ADMIN-UCSF-bo028","BOXED_Conjunction_12","incorrect",1160,596.637010574341,0,8,3,"M",4,NA,1,2017,2016-11-08,4370,760,0.110803324099723
"56",6795,6818,"ADMIN-UCSF-bo028","BOXED_Feature_4","incorrect",1180,751.399993896484,0,8,3,"M",16,NA,1,2017,2016-11-08,1390,190,0.825
"57",6796,6819,"ADMIN-UCSF-bo028","BOXED_Feature_4","incorrect",1380,751.625001430511,0,8,3,"M",25,NA,1,2017,2016-11-08,1390,190,0.991666666666667
"58",6797,6820,"ADMIN-UCSF-bo028","BOXED_Feature_12","incorrect",1310,796.279013156891,0,8,3,"M",6,NA,1,2017,2016-11-08,1350,360,0.95959595959596
"59",6798,6821,"ADMIN-UCSF-bo028","BOXED_Feature_4","incorrect",1290,852.826952934265,0,8,3,"M",20,NA,1,2017,2016-11-08,1390,190,0.916666666666667
"60",6799,6822,"ADMIN-UCSF-bo028","BOXED_Feature_4","incorrect",1210,871.903002262115,0,8,3,"M",18,NA,1,2017,2016-11-08,1390,190,0.85
"61",6800,6823,"ADMIN-UCSF-bo028","BOXED_Feature_12","incorrect",1030,873.81899356842,0,8,3,"M",19,NA,1,2017,2016-11-08,1350,360,0.676767676767677
"62",6801,6824,"ADMIN-UCSF-bo028","BOXED_Conjunction_12","incorrect",1320,936.339020729065,0,8,3,"M",5,NA,1,2017,2016-11-08,4370,760,0.155124653739612
"63",6802,6825,"ADMIN-UCSF-bo028","BOXED_Conjunction_4","incorrect",1000,973.830997943878,0,8,3,"M",1,NA,1,2017,2016-11-08,1890,190,0.476470588235294
"64",6803,6826,"ADMIN-UCSF-bo028","BOXED_Feature_12","incorrect",1000,1002.78598070145,0,8,3,"M",1,NA,1,2017,2016-11-08,1350,360,0.646464646464647
"65",6804,6827,"ADMIN-UCSF-bo028","BOXED_Feature_4","incorrect",1070,1007.92801380158,0,8,3,"M",4,NA,1,2017,2016-11-08,1390,190,0.733333333333333
"66",6805,6828,"ADMIN-UCSF-bo028","BOXED_Feature_12","incorrect",910,1041.47100448608,0,8,3,"M",25,NA,1,2017,2016-11-08,1350,360,0.555555555555556
"67",6806,6829,"ADMIN-UCSF-bo028","BOXED_Feature_4","incorrect",1140,1083.29200744629,0,8,3,"M",15,NA,1,2017,2016-11-08,1390,190,0.791666666666667
"68",6807,6830,"ADMIN-UCSF-bo028","BOXED_Feature_12","incorrect",1080,1115.82499742508,0,8,3,"M",3,NA,1,2017,2016-11-08,1350,360,0.727272727272727
"69",6808,6831,"ADMIN-UCSF-bo028","BOXED_Feature_12","incorrect",1310,1116.7379617691,0,8,3,"M",12,NA,1,2017,2016-11-08,1350,360,0.95959595959596
"70",6809,6832,"ADMIN-UCSF-bo028","BOXED_Feature_12","incorrect",1040,1135.45095920563,0,8,3,"M",2,NA,1,2017,2016-11-08,1350,360,0.686868686868687
"71",6810,6833,"ADMIN-UCSF-bo028","BOXED_Conjunction_4","incorrect",1350,1142.265021801,0,8,3,"M",11,NA,1,2017,2016-11-08,1890,190,0.682352941176471
"72",6811,6834,"ADMIN-UCSF-bo028","BOXED_Conjunction_4","incorrect",1070,1168.70599985123,0,8,3,"M",18,NA,1,2017,2016-11-08,1890,190,0.517647058823529
"73",6812,6835,"ADMIN-UCSF-bo028","BOXED_Feature_4","incorrect",1110,1171.79602384567,0,8,3,"M",9,NA,1,2017,2016-11-08,1390,190,0.766666666666667
"74",6813,6836,"ADMIN-UCSF-bo028","BOXED_Feature_4","incorrect",1110,1189.07201290131,0,8,3,"M",13,NA,1,2017,2016-11-08,1390,190,0.766666666666667
"75",6814,6837,"ADMIN-UCSF-bo028","BOXED_Feature_4","incorrect",1040,1197.78597354889,0,8,3,"M",2,NA,1,2017,2016-11-08,1390,190,0.708333333333333
"76",6815,6838,"ADMIN-UCSF-bo028","BOXED_Conjunction_4","incorrect",1110,1227.07504034042,0,8,3,"M",19,NA,1,2017,2016-11-08,1890,190,0.541176470588235
"77",6816,6839,"ADMIN-UCSF-bo028","BOXED_Conjunction_4","incorrect",1240,1260.96397638321,0,8,3,"M",25,NA,1,2017,2016-11-08,1890,190,0.617647058823529
"78",6817,6840,"ADMIN-UCSF-bo028","BOXED_Conjunction_4","incorrect",1210,1271.92199230194,0,8,3,"M",23,NA,1,2017,2016-11-08,1890,190,0.6
"79",6818,6841,"ADMIN-UCSF-bo028","BOXED_Conjunction_4","incorrect",1280,1309.17799472809,0,8,3,"M",8,NA,1,2017,2016-11-08,1890,190,0.641176470588235
"80",6819,6842,"ADMIN-UCSF-bo028","BOXED_Conjunction_4","incorrect",1150,1310.2599978447,0,8,3,"M",20,NA,1,2017,2016-11-08,1890,190,0.564705882352941
"81",6820,6843,"ADMIN-UCSF-bo028","BOXED_Feature_12","incorrect",1270,1314.65703248978,0,8,3,"M",11,NA,1,2017,2016-11-08,1350,360,0.919191919191919
"82",6821,6844,"ADMIN-UCSF-bo028","BOXED_Feature_12","incorrect",1160,1332.69500732422,0,8,3,"M",4,NA,1,2017,2016-11-08,1350,360,0.808080808080808
"83",6822,6845,"ADMIN-UCSF-bo028","BOXED_Conjunction_4","incorrect",1040,1389.75298404694,0,8,3,"M",2,NA,1,2017,2016-11-08,1890,190,0.5
"84",6823,6846,"ADMIN-UCSF-bo028","BOXED_Conjunction_4","incorrect",1160,1403.23996543884,0,8,3,"M",4,NA,1,2017,2016-11-08,1890,190,0.570588235294118
"85",6824,6847,"ADMIN-UCSF-bo028","BOXED_Conjunction_12","incorrect",2260,1505.3099989891,0,8,3,"M",9,NA,1,2017,2016-11-08,4370,760,0.415512465373961
"86",6825,6848,"ADMIN-UCSF-bo028","BOXED_Conjunction_12","incorrect",2470,1986.84298992157,0,8,3,"M",17,NA,1,2017,2016-11-08,4370,760,0.473684210526316
"87",6826,6849,"ADMIN-UCSF-bo028","BOXED_Conjunction_12","incorrect",2500,2523.37503433227,0,8,3,"M",19,NA,1,2017,2016-11-08,4370,760,0.481994459833795
"88",6827,6850,"ADMIN-UCSF-bo028","BOXED_Conjunction_12","no_response",1000,1500,0,8,3,"M",1,NA,1,2017,2016-11-08,4370,760,0.0664819944598338
"89",6828,6851,"ADMIN-UCSF-bo028","BOXED_Feature_4","no_response",1000,1500,0,8,3,"M",1,NA,1,2017,2016-11-08,1390,190,0.675
"90",6829,6852,"ADMIN-UCSF-bo028","BOXED_Conjunction_4","no_response",1080,1500,0,8,3,"M",3,NA,1,2017,2016-11-08,1890,190,0.523529411764706
"91",6830,6853,"ADMIN-UCSF-bo028","BOXED_Conjunction_4","no_response",1320,1500,0,8,3,"M",9,NA,1,2017,2016-11-08,1890,190,0.664705882352941
"92",6831,6854,"ADMIN-UCSF-bo028","BOXED_Conjunction_12","no_response",1080,1500,0,8,3,"M",3,NA,1,2017,2016-11-08,4370,760,0.0886426592797784
"93",6832,6855,"ADMIN-UCSF-bo028","BOXED_Conjunction_12","no_response",1040,1500,0,8,3,"M",2,NA,1,2017,2016-11-08,4370,760,0.0775623268698061
"94",6833,6856,"ADMIN-UCSF-bo028","BOXED_Conjunction_12","no_response",1640,1640,0,8,3,"M",6,NA,1,2017,2016-11-08,4370,760,0.243767313019391
"95",6834,6857,"ADMIN-UCSF-bo028","BOXED_Conjunction_12","no_response",2290,2300,0,8,3,"M",11,NA,1,2017,2016-11-08,4370,760,0.42382271468144
"96",6835,6858,"ADMIN-UCSF-bo028","BOXED_Conjunction_12","no_response",2330,2330,0,8,3,"M",12,NA,1,2017,2016-11-08,4370,760,0.434903047091413
"97",6836,6859,"ADMIN-UCSF-bo028","BOXED_Conjunction_12","no_response",2370,2370,0,8,3,"M",13,NA,1,2017,2016-11-08,4370,760,0.445983379501385
"98",6837,6860,"ADMIN-UCSF-bo028","BOXED_Conjunction_12","no_response",2430,2450,0,8,3,"M",16,NA,1,2017,2016-11-08,4370,760,0.462603878116344
"99",6838,6861,"ADMIN-UCSF-bo028","BOXED_Conjunction_12","no_response",2540,2540,0,8,3,"M",20,NA,1,2017,2016-11-08,4370,760,0.493074792243767
"100",6839,6862,"ADMIN-UCSF-bo028","BOXED_Conjunction_12","no_response",2580,2580,0,8,3,"M",21,NA,1,2017,2016-11-08,4370,760,0.50415512465374
"101",6840,6863,"ADMIN-UCSF-bo028","FLANKER_CONGRUENT","correct",940,451.552987098694,1,8,3,"M",10,NA,1,2017,2016-11-08,1270,180,0.697247706422018
"102",6841,6864,"ADMIN-UCSF-bo028","FLANKER_INCONGRUENT","correct",860,508.615970611572,1,8,3,"M",22,NA,1,2017,2016-11-08,2120,480,0.231707317073171
"103",6842,6865,"ADMIN-UCSF-bo028","FLANKER_INCONGRUENT","correct",830,518.212020397186,1,8,3,"M",3,NA,1,2017,2016-11-08,2120,480,0.213414634146341
"104",6843,6866,"ADMIN-UCSF-bo028","FLANKER_CONGRUENT","correct",780,530.095994472504,1,8,3,"M",15,NA,1,2017,2016-11-08,1270,180,0.55045871559633
"105",6844,6867,"ADMIN-UCSF-bo028","FLANKER_CONGRUENT","correct",940,554.084002971649,1,8,3,"M",6,NA,1,2017,2016-11-08,1270,180,0.697247706422018
"106",6845,6868,"ADMIN-UCSF-bo028","FLANKER_CONGRUENT","correct",750,561.199009418488,1,8,3,"M",23,NA,1,2017,2016-11-08,1270,180,0.522935779816514
"107",6846,6869,"ADMIN-UCSF-bo028","FLANKER_CONGRUENT","correct",730,561.668992042542,1,8,3,"M",25,NA,1,2017,2016-11-08,1270,180,0.504587155963303
"108",6847,6870,"ADMIN-UCSF-bo028","FLANKER_CONGRUENT","correct",900,565.73897600174,1,8,3,"M",13,NA,1,2017,2016-11-08,1270,180,0.660550458715596
"109",6848,6871,"ADMIN-UCSF-bo028","FLANKER_CONGRUENT","correct",790,599.233984947205,1,8,3,"M",2,NA,1,2017,2016-11-08,1270,180,0.559633027522936
"110",6849,6872,"ADMIN-UCSF-bo028","FLANKER_CONGRUENT","correct",920,633.894026279449,1,8,3,"M",8,NA,1,2017,2016-11-08,1270,180,0.678899082568807
"111",6850,6873,"ADMIN-UCSF-bo028","FLANKER_CONGRUENT","correct",740,644.770979881287,1,8,3,"M",24,NA,1,2017,2016-11-08,1270,180,0.513761467889908
"112",6851,6874,"ADMIN-UCSF-bo028","FLANKER_CONGRUENT","correct",920,648.437023162842,1,8,3,"M",12,NA,1,2017,2016-11-08,1270,180,0.678899082568807
"113",6852,6875,"ADMIN-UCSF-bo028","FLANKER_INCONGRUENT","correct",950,659.14398431778,1,8,3,"M",15,NA,1,2017,2016-11-08,2120,480,0.286585365853659
"114",6853,6876,"ADMIN-UCSF-bo028","FLANKER_INCONGRUENT","correct",840,670.383036136627,1,8,3,"M",2,NA,1,2017,2016-11-08,2120,480,0.219512195121951
"115",6854,6877,"ADMIN-UCSF-bo028","FLANKER_CONGRUENT","correct",800,670.728027820587,1,8,3,"M",1,NA,1,2017,2016-11-08,1270,180,0.568807339449541
"116",6855,6878,"ADMIN-UCSF-bo028","FLANKER_CONGRUENT","correct",700,676.939010620117,1,8,3,"M",18,NA,1,2017,2016-11-08,1270,180,0.477064220183486
"117",6856,6879,"ADMIN-UCSF-bo028","FLANKER_CONGRUENT","correct",720,693.185031414032,1,8,3,"M",21,NA,1,2017,2016-11-08,1270,180,0.495412844036697
"118",6857,6880,"ADMIN-UCSF-bo028","FLANKER_CONGRUENT","correct",730,711.897969245911,1,8,3,"M",20,NA,1,2017,2016-11-08,1270,180,0.504587155963303
"119",6858,6881,"ADMIN-UCSF-bo028","FLANKER_INCONGRUENT","correct",750,713.131010532379,1,8,3,"M",18,NA,1,2017,2016-11-08,2120,480,0.164634146341463
"120",6859,6882,"ADMIN-UCSF-bo028","FLANKER_CONGRUENT","correct",710,713.231980800629,0,8,3,"M",22,NA,1,2017,2016-11-08,1270,180,0.486238532110092
"121",6860,6883,"ADMIN-UCSF-bo028","FLANKER_CONGRUENT","correct",690,714.806973934174,0,8,3,"M",19,NA,1,2017,2016-11-08,1270,180,0.467889908256881
"122",6861,6884,"ADMIN-UCSF-bo028","FLANKER_INCONGRUENT","correct",970,715.196013450623,1,8,3,"M",7,NA,1,2017,2016-11-08,2120,480,0.298780487804878
"123",6862,6885,"ADMIN-UCSF-bo028","FLANKER_CONGRUENT","correct",930,716.262996196747,1,8,3,"M",7,NA,1,2017,2016-11-08,1270,180,0.688073394495413
"124",6863,6886,"ADMIN-UCSF-bo028","FLANKER_INCONGRUENT","correct",870,728.073000907898,1,8,3,"M",16,NA,1,2017,2016-11-08,2120,480,0.23780487804878
"125",6864,6887,"ADMIN-UCSF-bo028","FLANKER_CONGRUENT","correct",930,732.351958751678,1,8,3,"M",11,NA,1,2017,2016-11-08,1270,180,0.688073394495413
"126",6865,6888,"ADMIN-UCSF-bo028","FLANKER_CONGRUENT","correct",620,761.72000169754,0,8,3,"M",16,NA,1,2017,2016-11-08,1270,180,0.403669724770642
"127",6866,6889,"ADMIN-UCSF-bo028","FLANKER_INCONGRUENT","correct",930,788.214027881622,1,8,3,"M",25,NA,1,2017,2016-11-08,2120,480,0.274390243902439
"128",6867,6890,"ADMIN-UCSF-bo028","FLANKER_CONGRUENT","correct",860,806.082963943481,1,8,3,"M",14,NA,1,2017,2016-11-08,1270,180,0.623853211009174
"129",6868,6891,"ADMIN-UCSF-bo028","FLANKER_INCONGRUENT","correct",960,831.537008285522,1,8,3,"M",8,NA,1,2017,2016-11-08,2120,480,0.292682926829268
"130",6869,6892,"ADMIN-UCSF-bo028","FLANKER_INCONGRUENT","correct",1010,864.606022834778,1,8,3,"M",13,NA,1,2017,2016-11-08,2120,480,0.323170731707317
"131",6870,6893,"ADMIN-UCSF-bo028","FLANKER_INCONGRUENT","correct",1020,866.427004337311,1,8,3,"M",12,NA,1,2017,2016-11-08,2120,480,0.329268292682927
"132",6871,6894,"ADMIN-UCSF-bo028","FLANKER_INCONGRUENT","correct",1030,867.601990699768,1,8,3,"M",11,NA,1,2017,2016-11-08,2120,480,0.335365853658537
"133",6872,6895,"ADMIN-UCSF-bo028","FLANKER_INCONGRUENT","correct",710,878.20702791214,0,8,3,"M",17,NA,1,2017,2016-11-08,2120,480,0.140243902439024
"134",6873,6896,"ADMIN-UCSF-bo028","FLANKER_INCONGRUENT","correct",990,981.63503408432,1,8,3,"M",14,NA,1,2017,2016-11-08,2120,480,0.310975609756098
"135",6874,6897,"ADMIN-UCSF-bo028","FLANKER_INCONGRUENT","incorrect",800,40.4880046844482,0,8,3,"M",1,NA,1,2017,2016-11-08,2120,480,0.195121951219512
"136",6875,6898,"ADMIN-UCSF-bo028","FLANKER_INCONGRUENT","incorrect",740,145.839989185333,0,8,3,"M",19,NA,1,2017,2016-11-08,2120,480,0.158536585365854
"137",6876,6899,"ADMIN-UCSF-bo028","FLANKER_CONGRUENT","incorrect",780,337.720036506653,0,8,3,"M",3,NA,1,2017,2016-11-08,1270,180,0.55045871559633
"138",6877,6900,"ADMIN-UCSF-bo028","FLANKER_INCONGRUENT","incorrect",780,512.177050113678,0,8,3,"M",20,NA,1,2017,2016-11-08,2120,480,0.182926829268293
"139",6878,6901,"ADMIN-UCSF-bo028","FLANKER_INCONGRUENT","incorrect",890,606.796979904175,0,8,3,"M",24,NA,1,2017,2016-11-08,2120,480,0.25
"140",6879,6902,"ADMIN-UCSF-bo028","FLANKER_INCONGRUENT","incorrect",810,643.332958221436,0,8,3,"M",4,NA,1,2017,2016-11-08,2120,480,0.201219512195122
"141",6880,6903,"ADMIN-UCSF-bo028","FLANKER_INCONGRUENT","incorrect",890,679.18598651886,0,8,3,"M",6,NA,1,2017,2016-11-08,2120,480,0.25
"142",6881,6904,"ADMIN-UCSF-bo028","FLANKER_INCONGRUENT","incorrect",850,695.855021476746,0,8,3,"M",23,NA,1,2017,2016-11-08,2120,480,0.225609756097561
"143",6882,6905,"ADMIN-UCSF-bo028","FLANKER_INCONGRUENT","incorrect",950,714.50001001358,0,8,3,"M",9,NA,1,2017,2016-11-08,2120,480,0.286585365853659
"144",6883,6906,"ADMIN-UCSF-bo028","FLANKER_CONGRUENT","incorrect",900,717.88102388382,0,8,3,"M",9,NA,1,2017,2016-11-08,1270,180,0.660550458715596
"145",6884,6907,"ADMIN-UCSF-bo028","FLANKER_INCONGRUENT","incorrect",990,744.302988052368,0,8,3,"M",10,NA,1,2017,2016-11-08,2120,480,0.310975609756098
"146",6885,6908,"ADMIN-UCSF-bo028","FLANKER_CONGRUENT","incorrect",660,840.938985347748,0,8,3,"M",17,NA,1,2017,2016-11-08,1270,180,0.440366972477064
"147",6886,6909,"ADMIN-UCSF-bo028","FLANKER_INCONGRUENT","incorrect",820,944.227993488312,0,8,3,"M",21,NA,1,2017,2016-11-08,2120,480,0.207317073170732
"148",6887,6910,"ADMIN-UCSF-bo028","FLANKER_CONGRUENT","no_response",820,840,0,8,3,"M",4,NA,1,2017,2016-11-08,1270,180,0.587155963302752
"149",6888,6911,"ADMIN-UCSF-bo028","FLANKER_CONGRUENT","no_response",860,860,0,8,3,"M",5,NA,1,2017,2016-11-08,1270,180,0.623853211009174
"150",6889,6912,"ADMIN-UCSF-bo028","FLANKER_INCONGRUENT","no_response",850,940,0,8,3,"M",5,NA,1,2017,2016-11-08,2120,480,0.225609756097561
"151",6890,6913,"ADMIN-UCSF-bo028","SAAT_impulsive","correct",380,0,1,8,3,"M",13,"Correct Rejection",1,2017,2016-11-08,1040,160,0.25
"152",6891,6914,"ADMIN-UCSF-bo028","SAAT_sustained","correct",600,0,1,8,3,"M",1,"Correct Rejection",1,2017,2016-11-08,910,280,0.507936507936508
"153",6892,6915,"ADMIN-UCSF-bo028","SAAT_sustained","correct",600,0,1,8,3,"M",2,"Correct Rejection",1,2017,2016-11-08,910,280,0.507936507936508
"154",6893,6916,"ADMIN-UCSF-bo028","SAAT_sustained","correct",600,0,1,8,3,"M",3,"Correct Rejection",1,2017,2016-11-08,910,280,0.507936507936508
"155",6894,6917,"ADMIN-UCSF-bo028","SAAT_sustained","correct",600,0,1,8,3,"M",4,"Correct Rejection",1,2017,2016-11-08,910,280,0.507936507936508
"156",6895,6918,"ADMIN-UCSF-bo028","SAAT_sustained","correct",600,0,1,8,3,"M",13,"Correct Rejection",1,2017,2016-11-08,910,280,0.507936507936508
"157",6896,6919,"ADMIN-UCSF-bo028","SAAT_sustained","correct",600,0,1,8,3,"M",14,"Correct Rejection",1,2017,2016-11-08,910,280,0.507936507936508
"158",6897,6920,"ADMIN-UCSF-bo028","SAAT_sustained","correct",600,0,1,8,3,"M",15,"Correct Rejection",1,2017,2016-11-08,910,280,0.507936507936508
"159",6898,6921,"ADMIN-UCSF-bo028","SAAT_sustained","correct",600,0,1,8,3,"M",16,"Correct Rejection",1,2017,2016-11-08,910,280,0.507936507936508
"160",6899,6922,"ADMIN-UCSF-bo028","SAAT_sustained","correct",600,0,1,8,3,"M",17,"Correct Rejection",1,2017,2016-11-08,910,280,0.507936507936508
"161",6900,6923,"ADMIN-UCSF-bo028","SAAT_sustained","correct",600,0,1,8,3,"M",18,"Correct Rejection",1,2017,2016-11-08,910,280,0.507936507936508
"162",6901,6924,"ADMIN-UCSF-bo028","SAAT_sustained","correct",600,0,1,8,3,"M",19,"Correct Rejection",1,2017,2016-11-08,910,280,0.507936507936508
"163",6902,6925,"ADMIN-UCSF-bo028","SAAT_sustained","correct",600,0,1,8,3,"M",20,"Correct Rejection",1,2017,2016-11-08,910,280,0.507936507936508
"164",6903,6926,"ADMIN-UCSF-bo028","SAAT_sustained","correct",630,0,1,8,3,"M",10,"Correct Rejection",1,2017,2016-11-08,910,280,0.555555555555556
"165",6904,6927,"ADMIN-UCSF-bo028","SAAT_sustained","correct",640,0,1,8,3,"M",7,"Correct Rejection",1,2017,2016-11-08,910,280,0.571428571428571
"166",6905,6928,"ADMIN-UCSF-bo028","SAAT_sustained","correct",640,0,1,8,3,"M",8,"Correct Rejection",1,2017,2016-11-08,910,280,0.571428571428571
"167",6906,6929,"ADMIN-UCSF-bo028","SAAT_sustained","correct",640,0,1,8,3,"M",6,"Correct Rejection",1,2017,2016-11-08,910,280,0.571428571428571
"168",6907,6930,"ADMIN-UCSF-bo028","SAAT_impulsive","correct",700,0,1,8,3,"M",6,"Correct Rejection",1,2017,2016-11-08,1040,160,0.613636363636364
"169",6908,6931,"ADMIN-UCSF-bo028","SAAT_impulsive","correct",400,0,1,8,3,"M",40,"Correct Rejection",1,2017,2016-11-08,1040,160,0.272727272727273
"170",6909,6932,"ADMIN-UCSF-bo028","SAAT_impulsive","correct",410,0,1,8,3,"M",36,"Correct Rejection",1,2017,2016-11-08,1040,160,0.284090909090909
"171",6910,6933,"ADMIN-UCSF-bo028","SAAT_impulsive","correct",410,0,1,8,3,"M",37,"Correct Rejection",1,2017,2016-11-08,1040,160,0.284090909090909
"172",6911,6934,"ADMIN-UCSF-bo028","SAAT_impulsive","correct",410,0,1,8,3,"M",38,"Correct Rejection",1,2017,2016-11-08,1040,160,0.284090909090909
"173",6912,6935,"ADMIN-UCSF-bo028","SAAT_sustained","correct",600,0,1,8,3,"M",21,"Correct Rejection",1,2017,2016-11-08,910,280,0.507936507936508
"174",6913,6936,"ADMIN-UCSF-bo028","SAAT_sustained","correct",600,0,1,8,3,"M",22,"Correct Rejection",1,2017,2016-11-08,910,280,0.507936507936508
"175",6914,6937,"ADMIN-UCSF-bo028","SAAT_sustained","correct",620,0,1,8,3,"M",28,"Correct Rejection",1,2017,2016-11-08,910,280,0.53968253968254
"176",6915,6938,"ADMIN-UCSF-bo028","SAAT_sustained","correct",630,0,1,8,3,"M",25,"Correct Rejection",1,2017,2016-11-08,910,280,0.555555555555556
"177",6916,6939,"ADMIN-UCSF-bo028","SAAT_sustained","correct",630,0,1,8,3,"M",26,"Correct Rejection",1,2017,2016-11-08,910,280,0.555555555555556
"178",6917,6940,"ADMIN-UCSF-bo028","SAAT_sustained","correct",650,0,1,8,3,"M",31,"Correct Rejection",1,2017,2016-11-08,910,280,0.587301587301587
"179",6918,6941,"ADMIN-UCSF-bo028","SAAT_sustained","correct",670,0,1,8,3,"M",35,"Correct Rejection",1,2017,2016-11-08,910,280,0.619047619047619
"180",6919,6942,"ADMIN-UCSF-bo028","SAAT_sustained","correct",710,0,1,8,3,"M",38,"Correct Rejection",1,2017,2016-11-08,910,280,0.682539682539683
"181",6920,6943,"ADMIN-UCSF-bo028","SAAT_sustained","correct",710,0,1,8,3,"M",39,"Correct Rejection",1,2017,2016-11-08,910,280,0.682539682539683
"182",6921,6944,"ADMIN-UCSF-bo028","SAAT_sustained","correct",710,0,1,8,3,"M",40,"Correct Rejection",1,2017,2016-11-08,910,280,0.682539682539683
"183",6922,6945,"ADMIN-UCSF-bo028","SAAT_sustained","correct",710,0,1,8,3,"M",37,"Correct Rejection",1,2017,2016-11-08,910,280,0.682539682539683
"184",6923,6946,"ADMIN-UCSF-bo028","SAAT_impulsive","correct",730,0,1,8,3,"M",23,"Correct Rejection",1,2017,2016-11-08,1040,160,0.647727272727273
"185",6924,6947,"ADMIN-UCSF-bo028","SAAT_impulsive","correct",220,302.091002464294,0,8,3,"M",19,"Hit",1,2017,2016-11-08,1040,160,0.0681818181818182
"186",6925,6948,"ADMIN-UCSF-bo028","SAAT_sustained","correct",650,313.503980636597,1,8,3,"M",32,"Hit",1,2017,2016-11-08,910,280,0.587301587301587
"187",6926,6949,"ADMIN-UCSF-bo028","SAAT_impulsive","correct",380,338.6470079422,1,8,3,"M",14,"Hit",1,2017,2016-11-08,1040,160,0.25
"188",6927,6950,"ADMIN-UCSF-bo028","SAAT_impulsive","correct",720,354.104995727539,1,8,3,"M",25,"Hit",1,2017,2016-11-08,1040,160,0.636363636363636
"189",6928,6951,"ADMIN-UCSF-bo028","SAAT_sustained","correct",640,363.038003444672,1,8,3,"M",9,"Hit",1,2017,2016-11-08,910,280,0.571428571428571
"190",6929,6952,"ADMIN-UCSF-bo028","SAAT_impulsive","correct",410,366.955995559692,1,8,3,"M",39,"Hit",1,2017,2016-11-08,1040,160,0.284090909090909
"191",6930,6953,"ADMIN-UCSF-bo028","SAAT_impulsive","correct",650,395.067036151886,1,8,3,"M",32,"Hit",1,2017,2016-11-08,1040,160,0.556818181818182
"192",6931,6954,"ADMIN-UCSF-bo028","SAAT_impulsive","correct",660,402.44197845459,1,8,3,"M",10,"Hit",1,2017,2016-11-08,1040,160,0.568181818181818
"193",6932,6955,"ADMIN-UCSF-bo028","SAAT_impulsive","correct",540,405.184030532837,1,8,3,"M",12,"Hit",1,2017,2016-11-08,1040,160,0.431818181818182
"194",6933,6956,"ADMIN-UCSF-bo028","SAAT_impulsive","correct",640,429.922997951508,1,8,3,"M",2,"Hit",1,2017,2016-11-08,1040,160,0.545454545454545
"195",6934,6957,"ADMIN-UCSF-bo028","SAAT_impulsive","correct",680,436.914026737213,1,8,3,"M",9,"Hit",1,2017,2016-11-08,1040,160,0.590909090909091
"196",6935,6958,"ADMIN-UCSF-bo028","SAAT_impulsive","correct",710,437.619984149933,1,8,3,"M",26,"Hit",1,2017,2016-11-08,1040,160,0.625
"197",6936,6959,"ADMIN-UCSF-bo028","SAAT_impulsive","correct",610,451.579988002777,1,8,3,"M",33,"Hit",1,2017,2016-11-08,1040,160,0.511363636363636
"198",6937,6960,"ADMIN-UCSF-bo028","SAAT_impulsive","correct",670,452.507972717285,1,8,3,"M",31,"Hit",1,2017,2016-11-08,1040,160,0.579545454545455
"199",6938,6961,"ADMIN-UCSF-bo028","SAAT_impulsive","correct",620,455.397963523865,1,8,3,"M",11,"Hit",1,2017,2016-11-08,1040,160,0.522727272727273
"200",6939,6962,"ADMIN-UCSF-bo028","SAAT_impulsive","correct",690,458.609998226166,1,8,3,"M",8,"Hit",1,2017,2016-11-08,1040,160,0.602272727272727
"201",6940,6963,"ADMIN-UCSF-bo028","SAAT_sustained","correct",620,461.044013500214,1,8,3,"M",12,"Hit",1,2017,2016-11-08,910,280,0.53968253968254
"202",6941,6964,"ADMIN-UCSF-bo028","SAAT_impulsive","correct",680,466.596961021423,1,8,3,"M",30,"Hit",1,2017,2016-11-08,1040,160,0.590909090909091
"203",6942,6965,"ADMIN-UCSF-bo028","SAAT_impulsive","correct",690,469.02596950531,1,8,3,"M",27,"Hit",1,2017,2016-11-08,1040,160,0.602272727272727
"204",6943,6966,"ADMIN-UCSF-bo028","SAAT_impulsive","correct",370,470.144987106323,0,8,3,"M",35,"Hit",1,2017,2016-11-08,1040,160,0.238636363636364
"205",6944,6967,"ADMIN-UCSF-bo028","SAAT_sustained","correct",680,478.68800163269,1,8,3,"M",34,"Hit",1,2017,2016-11-08,910,280,0.634920634920635
"206",6945,6968,"ADMIN-UCSF-bo028","SAAT_impulsive","correct",530,487.222969532013,1,8,3,"M",34,"Hit",1,2017,2016-11-08,1040,160,0.420454545454545
"207",6946,6969,"ADMIN-UCSF-bo028","SAAT_sustained","correct",640,493.994951248169,1,8,3,"M",24,"Hit",1,2017,2016-11-08,910,280,0.571428571428571
"208",6947,6970,"ADMIN-UCSF-bo028","SAAT_sustained","correct",660,495.314002037048,1,8,3,"M",30,"Hit",1,2017,2016-11-08,910,280,0.603174603174603
"209",6948,6971,"ADMIN-UCSF-bo028","SAAT_sustained","correct",630,503.389000892639,1,8,3,"M",11,"Hit",1,2017,2016-11-08,910,280,0.555555555555556
"210",6949,6972,"ADMIN-UCSF-bo028","SAAT_sustained","correct",630,553.421974182129,1,8,3,"M",27,"Hit",1,2017,2016-11-08,910,280,0.555555555555556
"211",6950,6973,"ADMIN-UCSF-bo028","SAAT_impulsive","correct",700,565.205991268158,1,8,3,"M",7,"Hit",1,2017,2016-11-08,1040,160,0.613636363636364
"212",6951,6974,"ADMIN-UCSF-bo028","SAAT_impulsive","correct",690,569.164991378784,1,8,3,"M",29,"Hit",1,2017,2016-11-08,1040,160,0.602272727272727
"213",6952,6975,"ADMIN-UCSF-bo028","SAAT_impulsive","correct",700,603.515028953552,1,8,3,"M",21,"Hit",1,2017,2016-11-08,1040,160,0.613636363636364
"214",6953,6976,"ADMIN-UCSF-bo028","SAAT_impulsive","correct",670,604.471981525421,1,8,3,"M",4,"Hit",1,2017,2016-11-08,1040,160,0.579545454545455
"215",6954,6977,"ADMIN-UCSF-bo028","SAAT_impulsive","correct",730,643.958032131195,1,8,3,"M",24,"Hit",1,2017,2016-11-08,1040,160,0.647727272727273
"216",6955,6978,"ADMIN-UCSF-bo028","SAAT_impulsive","incorrect",380,285.324990749359,0,8,3,"M",20,"False Alarm",1,2017,2016-11-08,1040,160,0.25
"217",6956,6979,"ADMIN-UCSF-bo028","SAAT_impulsive","incorrect",690,297.509014606476,0,8,3,"M",22,"False Alarm",1,2017,2016-11-08,1040,160,0.602272727272727
"218",6957,6980,"ADMIN-UCSF-bo028","SAAT_impulsive","incorrect",650,301.839053630829,0,8,3,"M",28,"False Alarm",1,2017,2016-11-08,1040,160,0.556818181818182
"219",6958,6981,"ADMIN-UCSF-bo028","SAAT_sustained","incorrect",670,457.457005977631,0,8,3,"M",36,"False Alarm",1,2017,2016-11-08,910,280,0.619047619047619
"220",6959,6982,"ADMIN-UCSF-bo028","SAAT_impulsive","incorrect",630,593.268990516663,0,8,3,"M",3,"False Alarm",1,2017,2016-11-08,1040,160,0.534090909090909
"221",6960,6983,"ADMIN-UCSF-bo028","SAAT_sustained","no_response",600,600,0,8,3,"M",5,"Miss",1,2017,2016-11-08,910,280,0.507936507936508
"222",6961,6984,"ADMIN-UCSF-bo028","SAAT_impulsive","no_response",600,600,0,8,3,"M",1,"Miss",1,2017,2016-11-08,1040,160,0.5
"223",6962,6985,"ADMIN-UCSF-bo028","SAAT_sustained","no_response",600,640,0,8,3,"M",23,"Hit",1,2017,2016-11-08,910,280,0.507936507936508
"224",6963,6986,"ADMIN-UCSF-bo028","SAAT_sustained","no_response",620,640,0,8,3,"M",29,"Hit",1,2017,2016-11-08,910,280,0.53968253968254
"225",6964,6987,"ADMIN-UCSF-bo028","SAAT_sustained","no_response",640,660,0,8,3,"M",33,"Hit",1,2017,2016-11-08,910,280,0.571428571428571
"226",6965,6988,"ADMIN-UCSF-bo028","SAAT_impulsive","no_response",660,670,0,8,3,"M",5,"Hit",1,2017,2016-11-08,1040,160,0.568181818181818
"227",6966,6989,"ADMIN-UCSF-bo028","STROOP_CONGRUENT","correct",700,566.925048828125,1,8,3,"M",10,NA,1,2017,2016-11-08,1530,340,0.302521008403361
"228",6967,6990,"ADMIN-UCSF-bo028","STROOP_CONGRUENT","correct",820,584.820032119751,1,8,3,"M",8,NA,1,2017,2016-11-08,1530,340,0.403361344537815
"229",6968,6991,"ADMIN-UCSF-bo028","STROOP_CONGRUENT","correct",780,604.902982711792,1,8,3,"M",9,NA,1,2017,2016-11-08,1530,340,0.369747899159664
"230",6969,6992,"ADMIN-UCSF-bo028","STROOP_CONGRUENT","correct",830,609.73596572876,1,8,3,"M",3,NA,1,2017,2016-11-08,1530,340,0.411764705882353
"231",6970,6993,"ADMIN-UCSF-bo028","STROOP_CONGRUENT","correct",860,616.657018661499,1,8,3,"M",5,NA,1,2017,2016-11-08,1530,340,0.436974789915966
"232",6971,6994,"ADMIN-UCSF-bo028","STROOP_CONGRUENT","correct",850,618.572950363159,1,8,3,"M",6,NA,1,2017,2016-11-08,1530,340,0.428571428571429
"233",6972,6995,"ADMIN-UCSF-bo028","STROOP_INCONGRUENT","correct",860,633.949995040894,1,8,3,"M",5,NA,1,2017,2016-11-08,2390,360,0.246305418719212
"234",6973,6996,"ADMIN-UCSF-bo028","STROOP_CONGRUENT","correct",940,638.08399438858,1,8,3,"M",32,NA,1,2017,2016-11-08,1530,340,0.504201680672269
"235",6974,6997,"ADMIN-UCSF-bo028","STROOP_INCONGRUENT","correct",870,647.505044937134,1,8,3,"M",4,NA,1,2017,2016-11-08,2390,360,0.251231527093596
"236",6975,6998,"ADMIN-UCSF-bo028","STROOP_CONGRUENT","correct",840,656.740009784698,1,8,3,"M",7,NA,1,2017,2016-11-08,1530,340,0.420168067226891
"237",6976,6999,"ADMIN-UCSF-bo028","STROOP_CONGRUENT","correct",920,670.256972312927,1,8,3,"M",19,NA,1,2017,2016-11-08,1530,340,0.487394957983193
"238",6977,7000,"ADMIN-UCSF-bo028","STROOP_INCONGRUENT","correct",1180,673.444986343384,1,8,3,"M",15,NA,1,2017,2016-11-08,2390,360,0.403940886699507
"239",6978,7001,"ADMIN-UCSF-bo028","STROOP_CONGRUENT","correct",930,678.991973400116,1,8,3,"M",33,NA,1,2017,2016-11-08,1530,340,0.495798319327731
"240",6979,7002,"ADMIN-UCSF-bo028","STROOP_INCONGRUENT","correct",840,683.555006980896,1,8,3,"M",2,NA,1,2017,2016-11-08,2390,360,0.236453201970443
"241",6980,7003,"ADMIN-UCSF-bo028","STROOP_CONGRUENT","correct",540,685.999989509583,0,8,3,"M",11,NA,1,2017,2016-11-08,1530,340,0.168067226890756
"242",6981,7004,"ADMIN-UCSF-bo028","STROOP_CONGRUENT","correct",950,694.746017456055,1,8,3,"M",31,NA,1,2017,2016-11-08,1530,340,0.512605042016807
"243",6982,7005,"ADMIN-UCSF-bo028","STROOP_CONGRUENT","correct",920,696.296036243439,1,8,3,"M",29,NA,1,2017,2016-11-08,1530,340,0.487394957983193
"244",6983,7006,"ADMIN-UCSF-bo028","STROOP_CONGRUENT","correct",930,706.475019454956,1,8,3,"M",18,NA,1,2017,2016-11-08,1530,340,0.495798319327731
"245",6984,7007,"ADMIN-UCSF-bo028","STROOP_CONGRUENT","correct",890,745.774030685425,1,8,3,"M",25,NA,1,2017,2016-11-08,1530,340,0.46218487394958
"246",6985,7008,"ADMIN-UCSF-bo028","STROOP_CONGRUENT","correct",700,749.040007591248,0,8,3,"M",14,NA,1,2017,2016-11-08,1530,340,0.302521008403361
"247",6986,7009,"ADMIN-UCSF-bo028","STROOP_CONGRUENT","correct",930,750.301003456116,1,8,3,"M",28,NA,1,2017,2016-11-08,1530,340,0.495798319327731
"248",6987,7010,"ADMIN-UCSF-bo028","STROOP_INCONGRUENT","correct",830,750.631988048553,1,8,3,"M",7,NA,1,2017,2016-11-08,2390,360,0.231527093596059
"249",6988,7011,"ADMIN-UCSF-bo028","STROOP_INCONGRUENT","correct",870,751.269996166229,1,8,3,"M",10,NA,1,2017,2016-11-08,2390,360,0.251231527093596
"250",6989,7012,"ADMIN-UCSF-bo028","STROOP_CONGRUENT","correct",860,751.535058021545,1,8,3,"M",15,NA,1,2017,2016-11-08,1530,340,0.436974789915966
"251",6990,7013,"ADMIN-UCSF-bo028","STROOP_INCONGRUENT","correct",850,755.923986434937,1,8,3,"M",6,NA,1,2017,2016-11-08,2390,360,0.241379310344828
"252",6991,7014,"ADMIN-UCSF-bo028","STROOP_CONGRUENT","correct",910,773.770987987518,1,8,3,"M",34,NA,1,2017,2016-11-08,1530,340,0.478991596638655
"253",6992,7015,"ADMIN-UCSF-bo028","STROOP_CONGRUENT","correct",800,774.506986141205,1,8,3,"M",1,NA,1,2017,2016-11-08,1530,340,0.38655462184874
"254",6993,7016,"ADMIN-UCSF-bo028","STROOP_INCONGRUENT","correct",790,808.551967144012,0,8,3,"M",8,NA,1,2017,2016-11-08,2390,360,0.211822660098522
"255",6994,7017,"ADMIN-UCSF-bo028","STROOP_CONGRUENT","correct",910,831.157982349396,1,8,3,"M",24,NA,1,2017,2016-11-08,1530,340,0.478991596638655
"256",6995,7018,"ADMIN-UCSF-bo028","STROOP_CONGRUENT","correct",930,833.761990070343,1,8,3,"M",22,NA,1,2017,2016-11-08,1530,340,0.495798319327731
"257",6996,7019,"ADMIN-UCSF-bo028","STROOP_CONGRUENT","correct",850,879.477024078369,0,8,3,"M",26,NA,1,2017,2016-11-08,1530,340,0.428571428571429
"258",6997,7020,"ADMIN-UCSF-bo028","STROOP_CONGRUENT","correct",910,904.640972614288,1,8,3,"M",20,NA,1,2017,2016-11-08,1530,340,0.478991596638655
"259",6998,7021,"ADMIN-UCSF-bo028","STROOP_CONGRUENT","correct",920,915.511012077332,1,8,3,"M",23,NA,1,2017,2016-11-08,1530,340,0.487394957983193
"260",6999,7022,"ADMIN-UCSF-bo028","STROOP_CONGRUENT","correct",890,929.233014583588,0,8,3,"M",21,NA,1,2017,2016-11-08,1530,340,0.46218487394958
"261",7000,7023,"ADMIN-UCSF-bo028","STROOP_CONGRUENT","incorrect",820,703.168988227844,0,8,3,"M",4,NA,1,2017,2016-11-08,1530,340,0.403361344537815
"262",7001,7024,"ADMIN-UCSF-bo028","STROOP_INCONGRUENT","incorrect",1020,729.932963848114,0,8,3,"M",14,NA,1,2017,2016-11-08,2390,360,0.32512315270936
"263",7002,7025,"ADMIN-UCSF-bo028","STROOP_CONGRUENT","incorrect",580,819.559991359711,0,8,3,"M",12,NA,1,2017,2016-11-08,1530,340,0.201680672268908
"264",7003,7026,"ADMIN-UCSF-bo028","STROOP_CONGRUENT","no_response",790,800,0,8,3,"M",2,NA,1,2017,2016-11-08,1530,340,0.378151260504202
"265",7004,7027,"ADMIN-UCSF-bo028","STROOP_INCONGRUENT","no_response",800,830,0,8,3,"M",1,NA,1,2017,2016-11-08,2390,360,0.216748768472906
"266",7005,7028,"ADMIN-UCSF-bo028","STROOP_INCONGRUENT","no_response",830,860,0,8,3,"M",3,NA,1,2017,2016-11-08,2390,360,0.231527093596059
"267",7006,7029,"ADMIN-UCSF-bo028","STROOP_CONGRUENT","no_response",850,870,0,8,3,"M",16,NA,1,2017,2016-11-08,1530,340,0.428571428571429
"268",7007,7030,"ADMIN-UCSF-bo028","STROOP_CONGRUENT","no_response",620,870,0,8,3,"M",13,NA,1,2017,2016-11-08,1530,340,0.235294117647059
"269",7008,7031,"ADMIN-UCSF-bo028","STROOP_CONGRUENT","no_response",890,890,0,8,3,"M",17,NA,1,2017,2016-11-08,1530,340,0.46218487394958
"270",7009,7032,"ADMIN-UCSF-bo028","STROOP_INCONGRUENT","no_response",830,930,0,8,3,"M",9,NA,1,2017,2016-11-08,2390,360,0.231527093596059
"271",7010,7033,"ADMIN-UCSF-bo028","STROOP_INCONGRUENT","no_response",860,930,0,8,3,"M",11,NA,1,2017,2016-11-08,2390,360,0.246305418719212
"272",7011,7034,"ADMIN-UCSF-bo028","STROOP_CONGRUENT","no_response",890,930,0,8,3,"M",27,NA,1,2017,2016-11-08,1530,340,0.46218487394958
"273",7012,7035,"ADMIN-UCSF-bo028","STROOP_INCONGRUENT","no_response",900,930,0,8,3,"M",12,NA,1,2017,2016-11-08,2390,360,0.266009852216749
"274",7013,7036,"ADMIN-UCSF-bo028","STROOP_CONGRUENT","no_response",910,930,0,8,3,"M",30,NA,1,2017,2016-11-08,1530,340,0.478991596638655
"275",7014,7037,"ADMIN-UCSF-bo028","STROOP_INCONGRUENT","no_response",940,950,0,8,3,"M",13,NA,1,2017,2016-11-08,2390,360,0.285714285714286
"276",7015,7038,"ADMIN-UCSF-bo028","STROOP_CONGRUENT","no_response",870,1020,0,8,3,"M",35,NA,1,2017,2016-11-08,1530,340,0.445378151260504
"277",7016,7039,"ADMIN-UCSF-bo028","TASKSWITCH_Switch","correct",1010,566.67697429657,1,8,3,"M",9,NA,1,2017,2016-11-08,11040,160,0.078125
"278",7017,7040,"ADMIN-UCSF-bo028","TASKSWITCH_Stay","correct",680,580.335974693298,1,8,3,"M",17,NA,1,2017,2016-11-08,6070,160,0.0879864636209814
"279",7018,7041,"ADMIN-UCSF-bo028","TASKSWITCH_Switch","correct",800,590.683996677399,1,8,3,"M",1,NA,1,2017,2016-11-08,11040,160,0.0588235294117647
"280",7019,7042,"ADMIN-UCSF-bo028","TASKSWITCH_Stay","correct",990,597.543001174927,1,8,3,"M",12,NA,1,2017,2016-11-08,6070,160,0.140439932318105
"281",7020,7043,"ADMIN-UCSF-bo028","TASKSWITCH_Stay","correct",840,598.722994327545,1,8,3,"M",16,NA,1,2017,2016-11-08,6070,160,0.115059221658206
"282",7021,7044,"ADMIN-UCSF-bo028","TASKSWITCH_Switch","correct",860,698.563039302826,1,8,3,"M",5,NA,1,2017,2016-11-08,11040,160,0.0643382352941176
"283",7022,7045,"ADMIN-UCSF-bo028","TASKSWITCH_Stay","correct",970,715.741991996765,1,8,3,"M",9,NA,1,2017,2016-11-08,6070,160,0.137055837563452
"284",7023,7046,"ADMIN-UCSF-bo028","TASKSWITCH_Stay","correct",920,716.855049133301,1,8,3,"M",15,NA,1,2017,2016-11-08,6070,160,0.128595600676819
"285",7024,7047,"ADMIN-UCSF-bo028","TASKSWITCH_Switch","correct",870,720.127999782562,1,8,3,"M",4,NA,1,2017,2016-11-08,11040,160,0.0652573529411765
"286",7025,7048,"ADMIN-UCSF-bo028","TASKSWITCH_Stay","correct",960,731.952011585236,1,8,3,"M",14,NA,1,2017,2016-11-08,6070,160,0.135363790186125
"287",7026,7049,"ADMIN-UCSF-bo028","TASKSWITCH_Stay","correct",1000,765.316009521484,1,8,3,"M",11,NA,1,2017,2016-11-08,6070,160,0.142131979695431
"288",7027,7050,"ADMIN-UCSF-bo028","TASKSWITCH_Stay","correct",950,784.916996955872,1,8,3,"M",6,NA,1,2017,2016-11-08,6070,160,0.133671742808799
"289",7028,7051,"ADMIN-UCSF-bo028","TASKSWITCH_Stay","correct",880,819.396018981934,1,8,3,"M",3,NA,1,2017,2016-11-08,6070,160,0.121827411167513
"290",7029,7052,"ADMIN-UCSF-bo028","TASKSWITCH_Stay","correct",980,913.944005966187,1,8,3,"M",13,NA,1,2017,2016-11-08,6070,160,0.138747884940778
"291",7030,7053,"ADMIN-UCSF-bo028","TASKSWITCH_Stay","correct",980,952.116012573242,1,8,3,"M",8,NA,1,2017,2016-11-08,6070,160,0.138747884940778
"292",7031,7054,"ADMIN-UCSF-bo028","TASKSWITCH_Stay","incorrect",800,552.125990390778,0,8,3,"M",1,NA,1,2017,2016-11-08,6070,160,0.1082910321489
"293",7032,7055,"ADMIN-UCSF-bo028","TASKSWITCH_Stay","incorrect",910,692.37095117569,0,8,3,"M",5,NA,1,2017,2016-11-08,6070,160,0.126903553299492
"294",7033,7056,"ADMIN-UCSF-bo028","TASKSWITCH_Stay","incorrect",360,699.917018413544,0,8,3,"M",18,NA,1,2017,2016-11-08,6070,160,0.0338409475465313
"295",7034,7057,"ADMIN-UCSF-bo028","TASKSWITCH_Switch","incorrect",1000,735.305964946747,0,8,3,"M",10,NA,1,2017,2016-11-08,11040,160,0.0772058823529412
"296",7035,7058,"ADMIN-UCSF-bo028","TASKSWITCH_Stay","incorrect",400,748.243033885956,0,8,3,"M",19,NA,1,2017,2016-11-08,6070,160,0.0406091370558376
"297",7036,7059,"ADMIN-UCSF-bo028","TASKSWITCH_Switch","incorrect",930,751.310050487518,0,8,3,"M",8,NA,1,2017,2016-11-08,11040,160,0.0707720588235294
"298",7037,7060,"ADMIN-UCSF-bo028","TASKSWITCH_Stay","incorrect",840,780.714988708496,0,8,3,"M",2,NA,1,2017,2016-11-08,6070,160,0.115059221658206
"299",7038,7061,"ADMIN-UCSF-bo028","TASKSWITCH_Switch","incorrect",790,852.759957313538,0,8,3,"M",2,NA,1,2017,2016-11-08,11040,160,0.0579044117647059
"300",7039,7062,"ADMIN-UCSF-bo028","TASKSWITCH_Switch","incorrect",890,984.275996685028,0,8,3,"M",7,NA,1,2017,2016-11-08,11040,160,0.0670955882352941
"301",7040,7063,"ADMIN-UCSF-bo028","TASKSWITCH_Stay","incorrect",960,985.747039318085,0,8,3,"M",10,NA,1,2017,2016-11-08,6070,160,0.135363790186125
"302",7041,7064,"ADMIN-UCSF-bo028","TASKSWITCH_Stay","no_response",870,880,0,8,3,"M",4,NA,1,2017,2016-11-08,6070,160,0.120135363790186
"303",7042,7065,"ADMIN-UCSF-bo028","TASKSWITCH_Switch","no_response",830,910,0,8,3,"M",3,NA,1,2017,2016-11-08,11040,160,0.0615808823529412
"304",7043,7066,"ADMIN-UCSF-bo028","TASKSWITCH_Stay","no_response",940,950,0,8,3,"M",7,NA,1,2017,2016-11-08,6070,160,0.131979695431472
"305",7044,7067,"ADMIN-UCSF-bo028","TASKSWITCH_Switch","no_response",850,980,0,8,3,"M",6,NA,1,2017,2016-11-08,11040,160,0.0634191176470588
"306",7045,7068,"ADMIN-UCSF-bo028","TNT_Tap Only","correct",760,0,1,8,3,"M",19,"Correct Rejection",1,2017,2016-11-08,1160,160,0.6
"307",7046,7069,"ADMIN-UCSF-bo028","TNT_Tap Only","correct",760,0,1,8,3,"M",20,"Correct Rejection",1,2017,2016-11-08,1160,160,0.6
"308",7047,7070,"ADMIN-UCSF-bo028","TNT_Tap Only","correct",770,0,1,8,3,"M",17,"Correct Rejection",1,2017,2016-11-08,1160,160,0.61
"309",7048,7071,"ADMIN-UCSF-bo028","TNT_Tap & Trace","correct",790,0,1,8,3,"M",3,"Correct Rejection",1,2017,2016-11-08,1730,480,0.248
"310",7049,7072,"ADMIN-UCSF-bo028","TNT_Tap & Trace","correct",790,0,1,8,3,"M",4,"Correct Rejection",1,2017,2016-11-08,1730,480,0.248
"311",7050,7073,"ADMIN-UCSF-bo028","TNT_Tap & Trace","correct",820,0,1,8,3,"M",9,"Correct Rejection",1,2017,2016-11-08,1730,480,0.272
"312",7051,7074,"ADMIN-UCSF-bo028","TNT_Tap & Trace","correct",820,0,1,8,3,"M",8,"Correct Rejection",1,2017,2016-11-08,1730,480,0.272
"313",7052,7075,"ADMIN-UCSF-bo028","TNT_Tap Only","correct",880,0,1,8,3,"M",11,"Correct Rejection",1,2017,2016-11-08,1160,160,0.72
"314",7053,7076,"ADMIN-UCSF-bo028","TNT_Tap & Trace","correct",900,0,1,8,3,"M",13,"Correct Rejection",1,2017,2016-11-08,1730,480,0.336
"315",7054,7077,"ADMIN-UCSF-bo028","TNT_Tap Only","correct",900,0,1,8,3,"M",8,"Correct Rejection",1,2017,2016-11-08,1160,160,0.74
"316",7055,7078,"ADMIN-UCSF-bo028","TNT_Tap & Trace","correct",940,0,1,8,3,"M",20,"Correct Rejection",1,2017,2016-11-08,1730,480,0.368
"317",7056,7079,"ADMIN-UCSF-bo028","TNT_Tap & Trace","correct",960,0,1,8,3,"M",18,"Correct Rejection",1,2017,2016-11-08,1730,480,0.384
"318",7057,7080,"ADMIN-UCSF-bo028","TNT_Tap Only","correct",900,0,1,8,3,"M",7,"Correct Rejection",1,2017,2016-11-08,1160,160,0.74
"319",7058,7081,"ADMIN-UCSF-bo028","TNT_Tap Only","correct",800,0,1,8,3,"M",1,"Correct Rejection",1,2017,2016-11-08,1160,160,0.64
"320",7059,7082,"ADMIN-UCSF-bo028","TNT_Tap & Trace","correct",830,0,1,8,3,"M",6,"Correct Rejection",1,2017,2016-11-08,1730,480,0.28
"321",7060,7083,"ADMIN-UCSF-bo028","TNT_Tap & Trace","correct",900,0,1,8,3,"M",12,"Correct Rejection",1,2017,2016-11-08,1730,480,0.336
"322",7061,7084,"ADMIN-UCSF-bo028","TNT_Tap & Trace","correct",800,0,1,8,3,"M",1,"Correct Rejection",1,2017,2016-11-08,1730,480,0.256
"323",7062,7085,"ADMIN-UCSF-bo028","TNT_Tap Only","correct",660,0,1,8,3,"M",31,"Correct Rejection",1,2017,2016-11-08,1160,160,0.5
"324",7063,7086,"ADMIN-UCSF-bo028","TNT_Tap Only","correct",660,0,1,8,3,"M",32,"Correct Rejection",1,2017,2016-11-08,1160,160,0.5
"325",7064,7087,"ADMIN-UCSF-bo028","TNT_Tap Only","correct",690,0,1,8,3,"M",36,"Correct Rejection",1,2017,2016-11-08,1160,160,0.53
"326",7065,7088,"ADMIN-UCSF-bo028","TNT_Tap Only","correct",700,0,1,8,3,"M",25,"Correct Rejection",1,2017,2016-11-08,1160,160,0.54
"327",7066,7089,"ADMIN-UCSF-bo028","TNT_Tap Only","correct",740,0,1,8,3,"M",22,"Correct Rejection",1,2017,2016-11-08,1160,160,0.58
"328",7067,7090,"ADMIN-UCSF-bo028","TNT_Tap Only","correct",740,0,1,8,3,"M",23,"Correct Rejection",1,2017,2016-11-08,1160,160,0.58
"329",7068,7091,"ADMIN-UCSF-bo028","TNT_Tap & Trace","correct",930,0,1,8,3,"M",24,"Correct Rejection",1,2017,2016-11-08,1730,480,0.36
"330",7069,7092,"ADMIN-UCSF-bo028","TNT_Tap & Trace","correct",1010,0,1,8,3,"M",30,"Correct Rejection",1,2017,2016-11-08,1730,480,0.424
"331",7070,7093,"ADMIN-UCSF-bo028","TNT_Tap & Trace","correct",1010,0,1,8,3,"M",31,"Correct Rejection",1,2017,2016-11-08,1730,480,0.424
"332",7071,7094,"ADMIN-UCSF-bo028","TNT_Tap & Trace","correct",1010,0,1,8,3,"M",32,"Correct Rejection",1,2017,2016-11-08,1730,480,0.424
"333",7072,7095,"ADMIN-UCSF-bo028","TNT_Tap & Trace","correct",1010,0,1,8,3,"M",28,"Correct Rejection",1,2017,2016-11-08,1730,480,0.424
"334",7073,7096,"ADMIN-UCSF-bo028","TNT_Tap & Trace","correct",1010,0,1,8,3,"M",29,"Correct Rejection",1,2017,2016-11-08,1730,480,0.424
"335",7074,7097,"ADMIN-UCSF-bo028","TNT_Tap & Trace","correct",1070,0,1,8,3,"M",39,"Correct Rejection",1,2017,2016-11-08,1730,480,0.472
"336",7075,7098,"ADMIN-UCSF-bo028","TNT_Tap & Trace","correct",1080,0,1,8,3,"M",37,"Correct Rejection",1,2017,2016-11-08,1730,480,0.48
"337",7076,7099,"ADMIN-UCSF-bo028","TNT_Tap Only","correct",700,0,1,8,3,"M",34,"Correct Rejection",1,2017,2016-11-08,1160,160,0.54
"338",7077,7100,"ADMIN-UCSF-bo028","TNT_Tap & Trace","correct",1010,0,1,8,3,"M",27,"Correct Rejection",1,2017,2016-11-08,1730,480,0.424
"339",7078,7101,"ADMIN-UCSF-bo028","TNT_Tap & Trace","correct",1080,0,1,8,3,"M",36,"Correct Rejection",1,2017,2016-11-08,1730,480,0.48
"340",7079,7102,"ADMIN-UCSF-bo028","TNT_Tap & Trace","correct",940,436.296999454498,1,8,3,"M",21,"Hit",1,2017,2016-11-08,1730,480,0.368
"341",7080,7103,"ADMIN-UCSF-bo028","TNT_Tap Only","correct",690,458.05299282074,1,8,3,"M",37,"Hit",1,2017,2016-11-08,1160,160,0.53
"342",7081,7104,"ADMIN-UCSF-bo028","TNT_Tap Only","correct",730,497.47097492218,1,8,3,"M",28,"Hit",1,2017,2016-11-08,1160,160,0.57
"343",7082,7105,"ADMIN-UCSF-bo028","TNT_Tap Only","correct",780,521.418988704681,1,8,3,"M",16,"Hit",1,2017,2016-11-08,1160,160,0.62
"344",7083,7106,"ADMIN-UCSF-bo028","TNT_Tap Only","correct",720,564.105987548828,1,8,3,"M",29,"Hit",1,2017,2016-11-08,1160,160,0.56
"345",7084,7107,"ADMIN-UCSF-bo028","TNT_Tap & Trace","correct",980,567.719995975494,1,8,3,"M",16,"Hit",1,2017,2016-11-08,1730,480,0.4
"346",7085,7108,"ADMIN-UCSF-bo028","TNT_Tap Only","correct",740,568.287014961243,1,8,3,"M",27,"Hit",1,2017,2016-11-08,1160,160,0.58
"347",7086,7109,"ADMIN-UCSF-bo028","TNT_Tap Only","correct",740,589.316010475159,1,8,3,"M",24,"Hit",1,2017,2016-11-08,1160,160,0.58
"348",7087,7110,"ADMIN-UCSF-bo028","TNT_Tap Only","correct",840,593.486964702606,1,8,3,"M",3,"Hit",1,2017,2016-11-08,1160,160,0.68
"349",7088,7111,"ADMIN-UCSF-bo028","TNT_Tap Only","correct",890,605.663001537323,1,8,3,"M",10,"Hit",1,2017,2016-11-08,1160,160,0.73
"350",7089,7112,"ADMIN-UCSF-bo028","TNT_Tap Only","correct",830,606.73999786377,1,8,3,"M",4,"Hit",1,2017,2016-11-08,1160,160,0.67
"351",7090,7113,"ADMIN-UCSF-bo028","TNT_Tap Only","correct",900,639.576017856598,1,8,3,"M",9,"Hit",1,2017,2016-11-08,1160,160,0.74
"352",7091,7114,"ADMIN-UCSF-bo028","TNT_Tap Only","correct",770,656.34298324585,1,8,3,"M",18,"Hit",1,2017,2016-11-08,1160,160,0.61
"353",7092,7115,"ADMIN-UCSF-bo028","TNT_Tap Only","correct",700,661.306977272034,1,8,3,"M",35,"Hit",1,2017,2016-11-08,1160,160,0.54
"354",7093,7116,"ADMIN-UCSF-bo028","TNT_Tap Only","correct",820,672.936022281647,1,8,3,"M",14,"Hit",1,2017,2016-11-08,1160,160,0.66
"355",7094,7117,"ADMIN-UCSF-bo028","TNT_Tap Only","correct",880,677.121996879578,1,8,3,"M",12,"Hit",1,2017,2016-11-08,1160,160,0.72
"356",7095,7118,"ADMIN-UCSF-bo028","TNT_Tap Only","correct",760,684.167981147766,1,8,3,"M",40,"Hit",1,2017,2016-11-08,1160,160,0.6
"357",7096,7119,"ADMIN-UCSF-bo028","TNT_Tap Only","correct",700,686.28603219986,1,8,3,"M",30,"Hit",1,2017,2016-11-08,1160,160,0.54
"358",7097,7120,"ADMIN-UCSF-bo028","TNT_Tap & Trace","correct",940,695.715010166168,1,8,3,"M",23,"Hit",1,2017,2016-11-08,1730,480,0.368
"359",7098,7121,"ADMIN-UCSF-bo028","TNT_Tap Only","correct",860,707.036018371582,1,8,3,"M",13,"Hit",1,2017,2016-11-08,1160,160,0.7
"360",7099,7122,"ADMIN-UCSF-bo028","TNT_Tap & Trace","correct",800,717.094004154205,1,8,3,"M",2,"Hit",1,2017,2016-11-08,1730,480,0.256
"361",7100,7123,"ADMIN-UCSF-bo028","TNT_Tap & Trace","correct",1080,719.796001911163,1,8,3,"M",38,"Hit",1,2017,2016-11-08,1730,480,0.48
"362",7101,7124,"ADMIN-UCSF-bo028","TNT_Tap Only","correct",760,727.76997089386,1,8,3,"M",21,"Hit",1,2017,2016-11-08,1160,160,0.6
"363",7102,7125,"ADMIN-UCSF-bo028","TNT_Tap & Trace","correct",830,753.921985626221,1,8,3,"M",7,"Hit",1,2017,2016-11-08,1730,480,0.28
"364",7103,7126,"ADMIN-UCSF-bo028","TNT_Tap & Trace","correct",970,754.123985767365,1,8,3,"M",17,"Hit",1,2017,2016-11-08,1730,480,0.392
"365",7104,7127,"ADMIN-UCSF-bo028","TNT_Tap & Trace","correct",960,763.357996940613,1,8,3,"M",19,"Hit",1,2017,2016-11-08,1730,480,0.384
"366",7105,7128,"ADMIN-UCSF-bo028","TNT_Tap Only","correct",740,768.972992897034,0,8,3,"M",15,"Hit",1,2017,2016-11-08,1160,160,0.58
"367",7106,7129,"ADMIN-UCSF-bo028","TNT_Tap & Trace","correct",1010,803.508996963501,1,8,3,"M",33,"Hit",1,2017,2016-11-08,1730,480,0.424
"368",7107,7130,"ADMIN-UCSF-bo028","TNT_Tap & Trace","correct",1000,1010.44398546219,0,8,3,"M",34,"Hit",1,2017,2016-11-08,1730,480,0.416
"369",7108,7131,"ADMIN-UCSF-bo028","TNT_Tap Only","incorrect",820,461.566030979156,0,8,3,"M",5,"False Alarm",1,2017,2016-11-08,1160,160,0.66
"370",7109,7132,"ADMIN-UCSF-bo028","TNT_Tap Only","incorrect",680,512.968003749847,0,8,3,"M",38,"False Alarm",1,2017,2016-11-08,1160,160,0.52
"371",7110,7133,"ADMIN-UCSF-bo028","TNT_Tap Only","incorrect",860,519.860029220581,0,8,3,"M",6,"False Alarm",1,2017,2016-11-08,1160,160,0.7
"372",7111,7134,"ADMIN-UCSF-bo028","TNT_Tap Only","incorrect",720,527.754962444305,0,8,3,"M",39,"False Alarm",1,2017,2016-11-08,1160,160,0.56
"373",7112,7135,"ADMIN-UCSF-bo028","TNT_Tap Only","incorrect",800,595.070004463196,0,8,3,"M",2,"False Alarm",1,2017,2016-11-08,1160,160,0.64
"374",7113,7136,"ADMIN-UCSF-bo028","TNT_Tap Only","incorrect",700,621.731996536255,0,8,3,"M",26,"False Alarm",1,2017,2016-11-08,1160,160,0.54
"375",7114,7137,"ADMIN-UCSF-bo028","TNT_Tap & Trace","no_response",790,800,0,8,3,"M",5,"Hit",1,2017,2016-11-08,1730,480,0.248
"376",7115,7138,"ADMIN-UCSF-bo028","TNT_Tap & Trace","no_response",820,830,0,8,3,"M",10,"Hit",1,2017,2016-11-08,1730,480,0.272
"377",7116,7139,"ADMIN-UCSF-bo028","TNT_Tap & Trace","no_response",860,860,0,8,3,"M",11,"Miss",1,2017,2016-11-08,1730,480,0.304
"378",7117,7140,"ADMIN-UCSF-bo028","TNT_Tap & Trace","no_response",900,900,0,8,3,"M",14,"Miss",1,2017,2016-11-08,1730,480,0.336
"379",7118,7141,"ADMIN-UCSF-bo028","TNT_Tap Only","no_response",660,900,0,8,3,"M",33,"Hit",1,2017,2016-11-08,1160,160,0.5
"380",7119,7142,"ADMIN-UCSF-bo028","TNT_Tap & Trace","no_response",940,940,0,8,3,"M",15,"Miss",1,2017,2016-11-08,1730,480,0.368
"381",7120,7143,"ADMIN-UCSF-bo028","TNT_Tap & Trace","no_response",900,980,0,8,3,"M",22,"Hit",1,2017,2016-11-08,1730,480,0.336
"382",7121,7144,"ADMIN-UCSF-bo028","TNT_Tap & Trace","no_response",930,980,0,8,3,"M",25,"Hit",1,2017,2016-11-08,1730,480,0.36
"383",7122,7145,"ADMIN-UCSF-bo028","TNT_Tap & Trace","no_response",970,980,0,8,3,"M",26,"Hit",1,2017,2016-11-08,1730,480,0.392
"384",7123,7146,"ADMIN-UCSF-bo028","TNT_Tap & Trace","no_response",1040,1040,0,8,3,"M",35,"Miss",1,2017,2016-11-08,1730,480,0.448
"385",7124,7147,"ADMIN-UCSF-bo028","TNT_Tap & Trace","no_response",1070,1080,0,8,3,"M",40,"Hit",1,2017,2016-11-08,1730,480,0.472
"386",17146,17218,"ADMIN-UCSF-bo058","BOXED_Feature_12","correct",910,551.432013511658,1,10,5,"M",14,NA,1,2017,2016-11-08,1350,360,0.555555555555556
"387",17147,17219,"ADMIN-UCSF-bo058","BOXED_Feature_4","correct",940,572.150051593781,1,10,5,"M",12,NA,1,2017,2016-11-08,1390,190,0.625
"388",17148,17220,"ADMIN-UCSF-bo058","BOXED_Feature_4","correct",960,638.085007667542,1,10,5,"M",11,NA,1,2017,2016-11-08,1390,190,0.641666666666667
"389",17149,17221,"ADMIN-UCSF-bo058","BOXED_Feature_12","correct",760,674.378991127014,1,10,5,"M",22,NA,1,2017,2016-11-08,1350,360,0.404040404040404
"390",17150,17222,"ADMIN-UCSF-bo058","BOXED_Feature_4","correct",970,691.376984119415,1,10,5,"M",10,NA,1,2017,2016-11-08,1390,190,0.65
"391",17151,17223,"ADMIN-UCSF-bo058","BOXED_Feature_12","correct",920,702.591001987457,1,10,5,"M",13,NA,1,2017,2016-11-08,1350,360,0.565656565656566
"392",17152,17224,"ADMIN-UCSF-bo058","BOXED_Feature_4","correct",1000,706.524968147278,1,10,5,"M",1,NA,1,2017,2016-11-08,1390,190,0.675
"393",17153,17225,"ADMIN-UCSF-bo058","BOXED_Feature_12","correct",890,734.445035457611,1,10,5,"M",15,NA,1,2017,2016-11-08,1350,360,0.535353535353535
"394",17154,17226,"ADMIN-UCSF-bo058","BOXED_Feature_12","correct",770,734.681963920593,1,10,5,"M",17,NA,1,2017,2016-11-08,1350,360,0.414141414141414
"395",17155,17227,"ADMIN-UCSF-bo058","BOXED_Feature_4","correct",980,741.497039794922,1,10,5,"M",3,NA,1,2017,2016-11-08,1390,190,0.658333333333333
"396",17156,17228,"ADMIN-UCSF-bo058","BOXED_Feature_4","correct",940,744.979977607727,1,10,5,"M",22,NA,1,2017,2016-11-08,1390,190,0.625
"397",17157,17229,"ADMIN-UCSF-bo058","BOXED_Feature_12","correct",850,750.30905008316,1,10,5,"M",16,NA,1,2017,2016-11-08,1350,360,0.494949494949495
"398",17158,17230,"ADMIN-UCSF-bo058","BOXED_Conjunction_4","correct",1370,759.052991867065,1,10,5,"M",25,NA,1,2017,2016-11-08,1890,190,0.694117647058824
"399",17159,17231,"ADMIN-UCSF-bo058","BOXED_Feature_12","correct",770,764.586985111237,1,10,5,"M",21,NA,1,2017,2016-11-08,1350,360,0.414141414141414
"400",17160,17232,"ADMIN-UCSF-bo058","BOXED_Feature_4","correct",960,775.290966033936,1,10,5,"M",6,NA,1,2017,2016-11-08,1390,190,0.641666666666667
"401",17161,17233,"ADMIN-UCSF-bo058","BOXED_Feature_4","correct",990,776.022970676422,1,10,5,"M",2,NA,1,2017,2016-11-08,1390,190,0.666666666666667
"402",17162,17234,"ADMIN-UCSF-bo058","BOXED_Conjunction_4","correct",1350,778.699994087219,1,10,5,"M",12,NA,1,2017,2016-11-08,1890,190,0.682352941176471
"403",17163,17235,"ADMIN-UCSF-bo058","BOXED_Feature_4","correct",940,786.911964416504,1,10,5,"M",14,NA,1,2017,2016-11-08,1390,190,0.625
"404",17164,17236,"ADMIN-UCSF-bo058","BOXED_Feature_4","correct",980,788.995981216431,1,10,5,"M",19,NA,1,2017,2016-11-08,1390,190,0.658333333333333
"405",17165,17237,"ADMIN-UCSF-bo058","BOXED_Feature_4","correct",950,793.865978717804,1,10,5,"M",7,NA,1,2017,2016-11-08,1390,190,0.633333333333333
"406",17166,17238,"ADMIN-UCSF-bo058","BOXED_Feature_12","correct",990,803.146958351135,1,10,5,"M",2,NA,1,2017,2016-11-08,1350,360,0.636363636363636
"407",17167,17239,"ADMIN-UCSF-bo058","BOXED_Conjunction_4","correct",1030,810.162007808685,1,10,5,"M",3,NA,1,2017,2016-11-08,1890,190,0.494117647058824
"408",17168,17240,"ADMIN-UCSF-bo058","BOXED_Feature_12","correct",970,820.262968540192,1,10,5,"M",10,NA,1,2017,2016-11-08,1350,360,0.616161616161616
"409",17169,17241,"ADMIN-UCSF-bo058","BOXED_Feature_4","correct",960,836.191952228546,1,10,5,"M",21,NA,1,2017,2016-11-08,1390,190,0.641666666666667
"410",17170,17242,"ADMIN-UCSF-bo058","BOXED_Feature_4","correct",970,838.245987892151,1,10,5,"M",20,NA,1,2017,2016-11-08,1390,190,0.65
"411",17171,17243,"ADMIN-UCSF-bo058","BOXED_Feature_4","correct",920,841.78900718689,1,10,5,"M",16,NA,1,2017,2016-11-08,1390,190,0.608333333333333
"412",17172,17244,"ADMIN-UCSF-bo058","BOXED_Conjunction_12","correct",1760,851.495027542114,1,10,5,"M",22,NA,1,2017,2016-11-08,4370,760,0.277008310249307
"413",17173,17245,"ADMIN-UCSF-bo058","BOXED_Feature_4","correct",980,858.891010284424,1,10,5,"M",9,NA,1,2017,2016-11-08,1390,190,0.658333333333333
"414",17174,17246,"ADMIN-UCSF-bo058","BOXED_Conjunction_4","correct",1020,861.120998859406,1,10,5,"M",4,NA,1,2017,2016-11-08,1890,190,0.488235294117647
"415",17175,17247,"ADMIN-UCSF-bo058","BOXED_Feature_12","correct",930,868.393957614899,1,10,5,"M",12,NA,1,2017,2016-11-08,1350,360,0.575757575757576
"416",17176,17248,"ADMIN-UCSF-bo058","BOXED_Conjunction_4","correct",1440,877.420008182526,1,10,5,"M",22,NA,1,2017,2016-11-08,1890,190,0.735294117647059
"417",17177,17249,"ADMIN-UCSF-bo058","BOXED_Feature_12","correct",1010,882.667005062103,1,10,5,"M",9,NA,1,2017,2016-11-08,1350,360,0.656565656565657
"418",17178,17250,"ADMIN-UCSF-bo058","BOXED_Feature_4","correct",940,884.692966938019,1,10,5,"M",24,NA,1,2017,2016-11-08,1390,190,0.625
"419",17179,17251,"ADMIN-UCSF-bo058","BOXED_Feature_12","correct",1000,885.70898771286,1,10,5,"M",1,NA,1,2017,2016-11-08,1350,360,0.646464646464647
"420",17180,17252,"ADMIN-UCSF-bo058","BOXED_Feature_4","correct",960,892.566978931427,1,10,5,"M",4,NA,1,2017,2016-11-08,1390,190,0.641666666666667
"421",17181,17253,"ADMIN-UCSF-bo058","BOXED_Conjunction_4","correct",1000,898.18799495697,1,10,5,"M",1,NA,1,2017,2016-11-08,1890,190,0.476470588235294
"422",17182,17254,"ADMIN-UCSF-bo058","BOXED_Conjunction_12","correct",1400,901.907026767731,1,10,5,"M",12,NA,1,2017,2016-11-08,4370,760,0.177285318559557
"423",17183,17255,"ADMIN-UCSF-bo058","BOXED_Feature_12","correct",1050,902.538001537323,1,10,5,"M",6,NA,1,2017,2016-11-08,1350,360,0.696969696969697
"424",17184,17256,"ADMIN-UCSF-bo058","BOXED_Conjunction_12","correct",1460,909.156978130341,1,10,5,"M",16,NA,1,2017,2016-11-08,4370,760,0.193905817174515
"425",17185,17257,"ADMIN-UCSF-bo058","BOXED_Feature_12","correct",1020,916.994988918304,1,10,5,"M",4,NA,1,2017,2016-11-08,1350,360,0.666666666666667
"426",17186,17258,"ADMIN-UCSF-bo058","BOXED_Feature_12","correct",1040,920.956015586853,1,10,5,"M",7,NA,1,2017,2016-11-08,1350,360,0.686868686868687
"427",17187,17259,"ADMIN-UCSF-bo058","BOXED_Feature_4","correct",930,924.528002738953,1,10,5,"M",15,NA,1,2017,2016-11-08,1390,190,0.616666666666667
"428",17188,17260,"ADMIN-UCSF-bo058","BOXED_Feature_12","correct",1030,933.134973049164,1,10,5,"M",8,NA,1,2017,2016-11-08,1350,360,0.676767676767677
"429",17189,17261,"ADMIN-UCSF-bo058","BOXED_Conjunction_12","correct",1280,939.942002296448,1,10,5,"M",8,NA,1,2017,2016-11-08,4370,760,0.14404432132964
"430",17190,17262,"ADMIN-UCSF-bo058","BOXED_Conjunction_4","correct",1340,944.449007511139,1,10,5,"M",13,NA,1,2017,2016-11-08,1890,190,0.676470588235294
"431",17191,17263,"ADMIN-UCSF-bo058","BOXED_Conjunction_4","correct",1050,996.748983860016,1,10,5,"M",6,NA,1,2017,2016-11-08,1890,190,0.505882352941176
"432",17192,17264,"ADMIN-UCSF-bo058","BOXED_Conjunction_4","correct",1450,1015.90096950531,1,10,5,"M",21,NA,1,2017,2016-11-08,1890,190,0.741176470588235
"433",17193,17265,"ADMIN-UCSF-bo058","BOXED_Conjunction_12","correct",1320,1039.49904441833,1,10,5,"M",5,NA,1,2017,2016-11-08,4370,760,0.155124653739612
"434",17194,17266,"ADMIN-UCSF-bo058","BOXED_Conjunction_12","correct",1310,1057.51502513885,1,10,5,"M",6,NA,1,2017,2016-11-08,4370,760,0.152354570637119
"435",17195,17267,"ADMIN-UCSF-bo058","BOXED_Conjunction_4","correct",1390,1078.73404026031,1,10,5,"M",17,NA,1,2017,2016-11-08,1890,190,0.705882352941177
"436",17196,17268,"ADMIN-UCSF-bo058","BOXED_Conjunction_4","correct",1410,1091.74901247024,1,10,5,"M",24,NA,1,2017,2016-11-08,1890,190,0.717647058823529
"437",17197,17269,"ADMIN-UCSF-bo058","BOXED_Conjunction_12","correct",1750,1107.26100206375,1,10,5,"M",23,NA,1,2017,2016-11-08,4370,760,0.274238227146814
"438",17198,17270,"ADMIN-UCSF-bo058","BOXED_Conjunction_4","correct",1360,1117.78694391251,1,10,5,"M",11,NA,1,2017,2016-11-08,1890,190,0.688235294117647
"439",17199,17271,"ADMIN-UCSF-bo058","BOXED_Conjunction_4","correct",1420,1125.60296058655,1,10,5,"M",19,NA,1,2017,2016-11-08,1890,190,0.723529411764706
"440",17200,17272,"ADMIN-UCSF-bo058","BOXED_Conjunction_12","correct",1300,1142.01998710632,1,10,5,"M",7,NA,1,2017,2016-11-08,4370,760,0.149584487534626
"441",17201,17273,"ADMIN-UCSF-bo058","BOXED_Conjunction_12","correct",1430,1155.52401542664,1,10,5,"M",14,NA,1,2017,2016-11-08,4370,760,0.185595567867036
"442",17202,17274,"ADMIN-UCSF-bo058","BOXED_Conjunction_4","correct",1430,1260.42699813843,1,10,5,"M",23,NA,1,2017,2016-11-08,1890,190,0.729411764705882
"443",17203,17275,"ADMIN-UCSF-bo058","BOXED_Conjunction_4","correct",1360,1266.7550444603,1,10,5,"M",15,NA,1,2017,2016-11-08,1890,190,0.688235294117647
"444",17204,17276,"ADMIN-UCSF-bo058","BOXED_Conjunction_12","correct",1770,1465.43699502945,1,10,5,"M",21,NA,1,2017,2016-11-08,4370,760,0.279778393351801
"445",17205,17277,"ADMIN-UCSF-bo058","BOXED_Conjunction_12","correct",1730,1652.67699956894,1,10,5,"M",24,NA,1,2017,2016-11-08,4370,760,0.268698060941828
"446",17206,17278,"ADMIN-UCSF-bo058","BOXED_Feature_12","incorrect",790,800.425052642822,0,10,5,"M",24,NA,1,2017,2016-11-08,1350,360,0.434343434343434
"447",17207,17279,"ADMIN-UCSF-bo058","BOXED_Feature_12","incorrect",610,818.593978881836,0,10,5,"M",18,NA,1,2017,2016-11-08,1350,360,0.252525252525253
"448",17208,17280,"ADMIN-UCSF-bo058","BOXED_Feature_12","incorrect",750,865.348994731903,0,10,5,"M",23,NA,1,2017,2016-11-08,1350,360,0.393939393939394
"449",17209,17281,"ADMIN-UCSF-bo058","BOXED_Feature_12","incorrect",890,901.888012886047,0,10,5,"M",11,NA,1,2017,2016-11-08,1350,360,0.535353535353535
"450",17210,17282,"ADMIN-UCSF-bo058","BOXED_Feature_4","incorrect",900,977.136015892029,0,10,5,"M",13,NA,1,2017,2016-11-08,1390,190,0.591666666666667
"451",17211,17283,"ADMIN-UCSF-bo058","BOXED_Feature_4","incorrect",940,990.912020206451,0,10,5,"M",8,NA,1,2017,2016-11-08,1390,190,0.625
"452",17212,17284,"ADMIN-UCSF-bo058","BOXED_Feature_12","incorrect",830,996.989011764526,0,10,5,"M",25,NA,1,2017,2016-11-08,1350,360,0.474747474747475
"453",17213,17285,"ADMIN-UCSF-bo058","BOXED_Feature_12","incorrect",1010,1015.95801115036,0,10,5,"M",5,NA,1,2017,2016-11-08,1350,360,0.656565656565657
"454",17214,17286,"ADMIN-UCSF-bo058","BOXED_Feature_12","incorrect",650,1034.96903181076,0,10,5,"M",19,NA,1,2017,2016-11-08,1350,360,0.292929292929293
"455",17215,17287,"ADMIN-UCSF-bo058","BOXED_Feature_4","incorrect",930,1036.63700819016,0,10,5,"M",25,NA,1,2017,2016-11-08,1390,190,0.616666666666667
"456",17216,17288,"ADMIN-UCSF-bo058","BOXED_Conjunction_12","incorrect",1040,1043.56503486633,0,10,5,"M",2,NA,1,2017,2016-11-08,4370,760,0.0775623268698061
"457",17217,17289,"ADMIN-UCSF-bo058","BOXED_Feature_12","incorrect",980,1051.01299285889,0,10,5,"M",3,NA,1,2017,2016-11-08,1350,360,0.626262626262626
"458",17218,17290,"ADMIN-UCSF-bo058","BOXED_Feature_4","incorrect",900,1081.17002248764,0,10,5,"M",17,NA,1,2017,2016-11-08,1390,190,0.591666666666667
"459",17219,17291,"ADMIN-UCSF-bo058","BOXED_Feature_12","incorrect",690,1098.31297397614,0,10,5,"M",20,NA,1,2017,2016-11-08,1350,360,0.333333333333333
"460",17220,17292,"ADMIN-UCSF-bo058","BOXED_Feature_4","incorrect",940,1130.63895702362,0,10,5,"M",18,NA,1,2017,2016-11-08,1390,190,0.625
"461",17221,17293,"ADMIN-UCSF-bo058","BOXED_Feature_4","incorrect",900,1131.67297840118,0,10,5,"M",23,NA,1,2017,2016-11-08,1390,190,0.591666666666667
"462",17222,17294,"ADMIN-UCSF-bo058","BOXED_Conjunction_4","incorrect",990,1148.04798364639,0,10,5,"M",2,NA,1,2017,2016-11-08,1890,190,0.470588235294118
"463",17223,17295,"ADMIN-UCSF-bo058","BOXED_Conjunction_4","incorrect",1120,1179.14795875549,0,10,5,"M",9,NA,1,2017,2016-11-08,1890,190,0.547058823529412
"464",17224,17296,"ADMIN-UCSF-bo058","BOXED_Conjunction_12","incorrect",1160,1185.113966465,0,10,5,"M",4,NA,1,2017,2016-11-08,4370,760,0.110803324099723
"465",17225,17297,"ADMIN-UCSF-bo058","BOXED_Feature_4","incorrect",920,1207.49300718307,0,10,5,"M",5,NA,1,2017,2016-11-08,1390,190,0.608333333333333
"466",17226,17298,"ADMIN-UCSF-bo058","BOXED_Conjunction_12","incorrect",1610,1222.83101081848,0,10,5,"M",20,NA,1,2017,2016-11-08,4370,760,0.235457063711911
"467",17227,17299,"ADMIN-UCSF-bo058","BOXED_Conjunction_4","incorrect",1080,1229.35497760773,0,10,5,"M",8,NA,1,2017,2016-11-08,1890,190,0.523529411764706
"468",17228,17300,"ADMIN-UCSF-bo058","BOXED_Conjunction_4","incorrect",1010,1284.48098897934,0,10,5,"M",5,NA,1,2017,2016-11-08,1890,190,0.482352941176471
"469",17229,17301,"ADMIN-UCSF-bo058","BOXED_Conjunction_12","incorrect",1280,1335.15596389771,0,10,5,"M",10,NA,1,2017,2016-11-08,4370,760,0.14404432132964
"470",17230,17302,"ADMIN-UCSF-bo058","BOXED_Conjunction_12","incorrect",1320,1399.02001619339,0,10,5,"M",11,NA,1,2017,2016-11-08,4370,760,0.155124653739612
"471",17231,17303,"ADMIN-UCSF-bo058","BOXED_Conjunction_4","incorrect",1040,1445.81800699234,0,10,5,"M",7,NA,1,2017,2016-11-08,1890,190,0.5
"472",17232,17304,"ADMIN-UCSF-bo058","BOXED_Conjunction_4","incorrect",1350,1459.68496799469,0,10,5,"M",16,NA,1,2017,2016-11-08,1890,190,0.682352941176471
"473",17233,17305,"ADMIN-UCSF-bo058","BOXED_Conjunction_12","incorrect",1000,1510.44702529907,0,10,5,"M",1,NA,1,2017,2016-11-08,4370,760,0.0664819944598338
"474",17234,17306,"ADMIN-UCSF-bo058","BOXED_Conjunction_12","incorrect",1490,1515.32101631165,0,10,5,"M",18,NA,1,2017,2016-11-08,4370,760,0.202216066481994
"475",17235,17307,"ADMIN-UCSF-bo058","BOXED_Conjunction_12","incorrect",1390,1517.74996519089,0,10,5,"M",13,NA,1,2017,2016-11-08,4370,760,0.174515235457064
"476",17236,17308,"ADMIN-UCSF-bo058","BOXED_Conjunction_12","no_response",1240,1500,0,10,5,"M",9,NA,1,2017,2016-11-08,4370,760,0.132963988919668
"477",17237,17309,"ADMIN-UCSF-bo058","BOXED_Conjunction_12","no_response",1080,1500,0,10,5,"M",3,NA,1,2017,2016-11-08,4370,760,0.0886426592797784
"478",17238,17310,"ADMIN-UCSF-bo058","BOXED_Conjunction_4","no_response",1200,1500,0,10,5,"M",10,NA,1,2017,2016-11-08,1890,190,0.594117647058824
"479",17239,17311,"ADMIN-UCSF-bo058","BOXED_Conjunction_4","no_response",1320,1500,0,10,5,"M",14,NA,1,2017,2016-11-08,1890,190,0.664705882352941
"480",17240,17312,"ADMIN-UCSF-bo058","BOXED_Conjunction_4","no_response",1410,1500,0,10,5,"M",20,NA,1,2017,2016-11-08,1890,190,0.717647058823529
"481",17241,17313,"ADMIN-UCSF-bo058","BOXED_Conjunction_12","no_response",1450,1500,0,10,5,"M",17,NA,1,2017,2016-11-08,4370,760,0.191135734072022
"482",17242,17314,"ADMIN-UCSF-bo058","BOXED_Conjunction_4","no_response",1380,1500,0,10,5,"M",18,NA,1,2017,2016-11-08,1890,190,0.7
"483",17243,17315,"ADMIN-UCSF-bo058","BOXED_Conjunction_12","no_response",1420,1500,0,10,5,"M",15,NA,1,2017,2016-11-08,4370,760,0.182825484764543
"484",17244,17316,"ADMIN-UCSF-bo058","BOXED_Conjunction_12","no_response",1530,1530,0,10,5,"M",19,NA,1,2017,2016-11-08,4370,760,0.213296398891967
"485",17245,17317,"ADMIN-UCSF-bo058","BOXED_Conjunction_12","no_response",1690,1770,0,10,5,"M",25,NA,1,2017,2016-11-08,4370,760,0.257617728531856
"486",17246,17318,"ADMIN-UCSF-bo058","FLANKER_INCONGRUENT","correct",850,490.365982055664,1,10,5,"M",20,NA,1,2017,2016-11-08,2120,480,0.225609756097561
"487",17247,17319,"ADMIN-UCSF-bo058","FLANKER_CONGRUENT","correct",960,498.757004737854,1,10,5,"M",22,NA,1,2017,2016-11-08,1270,180,0.715596330275229
"488",17248,17320,"ADMIN-UCSF-bo058","FLANKER_INCONGRUENT","correct",860,534.097015857697,1,10,5,"M",5,NA,1,2017,2016-11-08,2120,480,0.231707317073171
"489",17249,17321,"ADMIN-UCSF-bo058","FLANKER_INCONGRUENT","correct",930,567.752003669739,1,10,5,"M",13,NA,1,2017,2016-11-08,2120,480,0.274390243902439
"490",17250,17322,"ADMIN-UCSF-bo058","FLANKER_CONGRUENT","correct",890,580.843031406403,1,10,5,"M",19,NA,1,2017,2016-11-08,1270,180,0.651376146788991
"491",17251,17323,"ADMIN-UCSF-bo058","FLANKER_INCONGRUENT","correct",970,603.340983390808,1,10,5,"M",12,NA,1,2017,2016-11-08,2120,480,0.298780487804878
"492",17252,17324,"ADMIN-UCSF-bo058","FLANKER_CONGRUENT","correct",900,636.246979236603,1,10,5,"M",9,NA,1,2017,2016-11-08,1270,180,0.660550458715596
"493",17253,17325,"ADMIN-UCSF-bo058","FLANKER_CONGRUENT","correct",860,644.596993923187,1,10,5,"M",17,NA,1,2017,2016-11-08,1270,180,0.623853211009174
"494",17254,17326,"ADMIN-UCSF-bo058","FLANKER_INCONGRUENT","correct",1000,669.68697309494,1,10,5,"M",10,NA,1,2017,2016-11-08,2120,480,0.317073170731707
"495",17255,17327,"ADMIN-UCSF-bo058","FLANKER_CONGRUENT","correct",780,674.771010875702,1,10,5,"M",3,NA,1,2017,2016-11-08,1270,180,0.55045871559633
"496",17256,17328,"ADMIN-UCSF-bo058","FLANKER_INCONGRUENT","correct",930,676.12099647522,1,10,5,"M",24,NA,1,2017,2016-11-08,2120,480,0.274390243902439
"497",17257,17329,"ADMIN-UCSF-bo058","FLANKER_CONGRUENT","correct",790,699.836015701294,1,10,5,"M",14,NA,1,2017,2016-11-08,1270,180,0.559633027522936
"498",17258,17330,"ADMIN-UCSF-bo058","FLANKER_CONGRUENT","correct",950,710.245013237,1,10,5,"M",23,NA,1,2017,2016-11-08,1270,180,0.706422018348624
"499",17259,17331,"ADMIN-UCSF-bo058","FLANKER_CONGRUENT","correct",920,716.368019580841,1,10,5,"M",7,NA,1,2017,2016-11-08,1270,180,0.678899082568807
"500",17260,17332,"ADMIN-UCSF-bo058","FLANKER_CONGRUENT","correct",880,719.071984291077,1,10,5,"M",10,NA,1,2017,2016-11-08,1270,180,0.642201834862385
"501",17261,17333,"ADMIN-UCSF-bo058","FLANKER_INCONGRUENT","correct",930,722.733020782471,1,10,5,"M",16,NA,1,2017,2016-11-08,2120,480,0.274390243902439
"502",17262,17334,"ADMIN-UCSF-bo058","FLANKER_INCONGRUENT","correct",800,740.119993686676,1,10,5,"M",1,NA,1,2017,2016-11-08,2120,480,0.195121951219512
"503",17263,17335,"ADMIN-UCSF-bo058","FLANKER_CONGRUENT","correct",800,740.243017673492,1,10,5,"M",1,NA,1,2017,2016-11-08,1270,180,0.568807339449541
"504",17264,17336,"ADMIN-UCSF-bo058","FLANKER_CONGRUENT","correct",980,740.956962108612,1,10,5,"M",25,NA,1,2017,2016-11-08,1270,180,0.73394495412844
"505",17265,17337,"ADMIN-UCSF-bo058","FLANKER_CONGRUENT","correct",800,765.838027000427,1,10,5,"M",13,NA,1,2017,2016-11-08,1270,180,0.568807339449541
"506",17266,17338,"ADMIN-UCSF-bo058","FLANKER_INCONGRUENT","correct",910,766.010999679565,1,10,5,"M",18,NA,1,2017,2016-11-08,2120,480,0.26219512195122
"507",17267,17339,"ADMIN-UCSF-bo058","FLANKER_INCONGRUENT","correct",920,766.686975955963,1,10,5,"M",25,NA,1,2017,2016-11-08,2120,480,0.268292682926829
"508",17268,17340,"ADMIN-UCSF-bo058","FLANKER_CONGRUENT","correct",840,768.945038318634,1,10,5,"M",11,NA,1,2017,2016-11-08,1270,180,0.605504587155963
"509",17269,17341,"ADMIN-UCSF-bo058","FLANKER_CONGRUENT","correct",790,770.389020442963,1,10,5,"M",2,NA,1,2017,2016-11-08,1270,180,0.559633027522936
"510",17270,17342,"ADMIN-UCSF-bo058","FLANKER_CONGRUENT","correct",760,775.848031044006,0,10,5,"M",4,NA,1,2017,2016-11-08,1270,180,0.532110091743119
"511",17271,17343,"ADMIN-UCSF-bo058","FLANKER_INCONGRUENT","correct",790,789.57599401474,1,10,5,"M",2,NA,1,2017,2016-11-08,2120,480,0.189024390243902
"512",17272,17344,"ADMIN-UCSF-bo058","FLANKER_INCONGRUENT","correct",920,817.121028900146,1,10,5,"M",17,NA,1,2017,2016-11-08,2120,480,0.268292682926829
"513",17273,17345,"ADMIN-UCSF-bo058","FLANKER_CONGRUENT","correct",820,834.47802066803,0,10,5,"M",16,NA,1,2017,2016-11-08,1270,180,0.587155963302752
"514",17274,17346,"ADMIN-UCSF-bo058","FLANKER_INCONGRUENT","correct",890,881.799042224884,1,10,5,"M",19,NA,1,2017,2016-11-08,2120,480,0.25
"515",17275,17347,"ADMIN-UCSF-bo058","FLANKER_INCONGRUENT","correct",850,882.797002792358,0,10,5,"M",14,NA,1,2017,2016-11-08,2120,480,0.225609756097561
"516",17276,17348,"ADMIN-UCSF-bo058","FLANKER_CONGRUENT","correct",910,885.609030723572,1,10,5,"M",8,NA,1,2017,2016-11-08,1270,180,0.669724770642202
"517",17277,17349,"ADMIN-UCSF-bo058","FLANKER_INCONGRUENT","correct",990,901.614010334015,1,10,5,"M",11,NA,1,2017,2016-11-08,2120,480,0.310975609756098
"518",17278,17350,"ADMIN-UCSF-bo058","FLANKER_INCONGRUENT","correct",1010,918.773949146271,1,10,5,"M",9,NA,1,2017,2016-11-08,2120,480,0.323170731707317
"519",17279,17351,"ADMIN-UCSF-bo058","FLANKER_CONGRUENT","correct",850,964.865028858185,0,10,5,"M",18,NA,1,2017,2016-11-08,1270,180,0.614678899082569
"520",17280,17352,"ADMIN-UCSF-bo058","FLANKER_INCONGRUENT","correct",850,976.677000522614,0,10,5,"M",23,NA,1,2017,2016-11-08,2120,480,0.225609756097561
"521",17281,17353,"ADMIN-UCSF-bo058","FLANKER_INCONGRUENT","incorrect",820,419.178009033203,0,10,5,"M",4,NA,1,2017,2016-11-08,2120,480,0.207317073170732
"522",17282,17354,"ADMIN-UCSF-bo058","FLANKER_CONGRUENT","incorrect",760,528.726041316986,0,10,5,"M",12,NA,1,2017,2016-11-08,1270,180,0.532110091743119
"523",17283,17355,"ADMIN-UCSF-bo058","FLANKER_CONGRUENT","incorrect",840,552.621006965637,0,10,5,"M",6,NA,1,2017,2016-11-08,1270,180,0.605504587155963
"524",17284,17356,"ADMIN-UCSF-bo058","FLANKER_CONGRUENT","incorrect",920,594.561040401459,0,10,5,"M",21,NA,1,2017,2016-11-08,1270,180,0.678899082568807
"525",17285,17357,"ADMIN-UCSF-bo058","FLANKER_CONGRUENT","incorrect",940,649.906039237976,0,10,5,"M",24,NA,1,2017,2016-11-08,1270,180,0.697247706422018
"526",17286,17358,"ADMIN-UCSF-bo058","FLANKER_INCONGRUENT","incorrect",850,684.868991374969,0,10,5,"M",6,NA,1,2017,2016-11-08,2120,480,0.225609756097561
"527",17287,17359,"ADMIN-UCSF-bo058","FLANKER_INCONGRUENT","incorrect",930,763.611018657684,0,10,5,"M",8,NA,1,2017,2016-11-08,2120,480,0.274390243902439
"528",17288,17360,"ADMIN-UCSF-bo058","FLANKER_INCONGRUENT","incorrect",890,767.012000083923,0,10,5,"M",15,NA,1,2017,2016-11-08,2120,480,0.25
"529",17289,17361,"ADMIN-UCSF-bo058","FLANKER_CONGRUENT","incorrect",880,778.61100435257,0,10,5,"M",20,NA,1,2017,2016-11-08,1270,180,0.642201834862385
"530",17290,17362,"ADMIN-UCSF-bo058","FLANKER_INCONGRUENT","no_response",780,800,0,10,5,"M",3,NA,1,2017,2016-11-08,2120,480,0.182926829268293
"531",17291,17363,"ADMIN-UCSF-bo058","FLANKER_CONGRUENT","no_response",800,820,0,10,5,"M",5,NA,1,2017,2016-11-08,1270,180,0.568807339449541
"532",17292,17364,"ADMIN-UCSF-bo058","FLANKER_INCONGRUENT","no_response",890,890,0,10,5,"M",7,NA,1,2017,2016-11-08,2120,480,0.25
"533",17293,17365,"ADMIN-UCSF-bo058","FLANKER_INCONGRUENT","no_response",770,1010,0,10,5,"M",21,NA,1,2017,2016-11-08,2120,480,0.176829268292683
"534",17294,17366,"ADMIN-UCSF-bo058","FLANKER_CONGRUENT","no_response",780,1010,0,10,5,"M",15,NA,1,2017,2016-11-08,1270,180,0.55045871559633
"535",17295,17367,"ADMIN-UCSF-bo058","FLANKER_INCONGRUENT","no_response",810,1010,0,10,5,"M",22,NA,1,2017,2016-11-08,2120,480,0.201219512195122
"536",17296,17368,"ADMIN-UCSF-bo058","SAAT_impulsive","correct",560,0,1,10,5,"M",12,"Correct Rejection",1,2017,2016-11-08,1040,160,0.454545454545455
"537",17297,17369,"ADMIN-UCSF-bo058","SAAT_impulsive","correct",560,0,1,10,5,"M",13,"Correct Rejection",1,2017,2016-11-08,1040,160,0.454545454545455
"538",17298,17370,"ADMIN-UCSF-bo058","SAAT_sustained","correct",600,0,1,10,5,"M",6,"Correct Rejection",1,2017,2016-11-08,910,280,0.507936507936508
"539",17299,17371,"ADMIN-UCSF-bo058","SAAT_sustained","correct",600,0,1,10,5,"M",7,"Correct Rejection",1,2017,2016-11-08,910,280,0.507936507936508
"540",17300,17372,"ADMIN-UCSF-bo058","SAAT_sustained","correct",600,0,1,10,5,"M",8,"Correct Rejection",1,2017,2016-11-08,910,280,0.507936507936508
"541",17301,17373,"ADMIN-UCSF-bo058","SAAT_sustained","correct",600,0,1,10,5,"M",9,"Correct Rejection",1,2017,2016-11-08,910,280,0.507936507936508
"542",17302,17374,"ADMIN-UCSF-bo058","SAAT_sustained","correct",610,0,1,10,5,"M",19,"Correct Rejection",1,2017,2016-11-08,910,280,0.523809523809524
"543",17303,17375,"ADMIN-UCSF-bo058","SAAT_sustained","correct",610,0,1,10,5,"M",20,"Correct Rejection",1,2017,2016-11-08,910,280,0.523809523809524
"544",17304,17376,"ADMIN-UCSF-bo058","SAAT_sustained","correct",620,0,1,10,5,"M",17,"Correct Rejection",1,2017,2016-11-08,910,280,0.53968253968254
"545",17305,17377,"ADMIN-UCSF-bo058","SAAT_sustained","correct",630,0,1,10,5,"M",13,"Correct Rejection",1,2017,2016-11-08,910,280,0.555555555555556
"546",17306,17378,"ADMIN-UCSF-bo058","SAAT_sustained","correct",630,0,1,10,5,"M",14,"Correct Rejection",1,2017,2016-11-08,910,280,0.555555555555556
"547",17307,17379,"ADMIN-UCSF-bo058","SAAT_sustained","correct",630,0,1,10,5,"M",15,"Correct Rejection",1,2017,2016-11-08,910,280,0.555555555555556
"548",17308,17380,"ADMIN-UCSF-bo058","SAAT_impulsive","correct",640,0,1,10,5,"M",3,"Correct Rejection",1,2017,2016-11-08,1040,160,0.545454545454545
"549",17309,17381,"ADMIN-UCSF-bo058","SAAT_sustained","correct",600,0,1,10,5,"M",5,"Correct Rejection",1,2017,2016-11-08,910,280,0.507936507936508
"550",17310,17382,"ADMIN-UCSF-bo058","SAAT_sustained","correct",630,0,1,10,5,"M",12,"Correct Rejection",1,2017,2016-11-08,910,280,0.555555555555556
"551",17311,17383,"ADMIN-UCSF-bo058","SAAT_impulsive","correct",640,0,1,10,5,"M",2,"Correct Rejection",1,2017,2016-11-08,1040,160,0.545454545454545
"552",17312,17384,"ADMIN-UCSF-bo058","SAAT_impulsive","correct",330,0,1,10,5,"M",39,"Correct Rejection",1,2017,2016-11-08,1040,160,0.193181818181818
"553",17313,17385,"ADMIN-UCSF-bo058","SAAT_impulsive","correct",360,0,1,10,5,"M",23,"Correct Rejection",1,2017,2016-11-08,1040,160,0.227272727272727
"554",17314,17386,"ADMIN-UCSF-bo058","SAAT_impulsive","correct",380,0,1,10,5,"M",27,"Correct Rejection",1,2017,2016-11-08,1040,160,0.25
"555",17315,17387,"ADMIN-UCSF-bo058","SAAT_impulsive","correct",380,0,1,10,5,"M",28,"Correct Rejection",1,2017,2016-11-08,1040,160,0.25
"556",17316,17388,"ADMIN-UCSF-bo058","SAAT_sustained","correct",550,0,1,10,5,"M",23,"Correct Rejection",1,2017,2016-11-08,910,280,0.428571428571429
"557",17317,17389,"ADMIN-UCSF-bo058","SAAT_sustained","correct",550,0,1,10,5,"M",24,"Correct Rejection",1,2017,2016-11-08,910,280,0.428571428571429
"558",17318,17390,"ADMIN-UCSF-bo058","SAAT_sustained","correct",550,0,1,10,5,"M",25,"Correct Rejection",1,2017,2016-11-08,910,280,0.428571428571429
"559",17319,17391,"ADMIN-UCSF-bo058","SAAT_sustained","correct",550,0,1,10,5,"M",26,"Correct Rejection",1,2017,2016-11-08,910,280,0.428571428571429
"560",17320,17392,"ADMIN-UCSF-bo058","SAAT_sustained","correct",590,0,1,10,5,"M",29,"Correct Rejection",1,2017,2016-11-08,910,280,0.492063492063492
"561",17321,17393,"ADMIN-UCSF-bo058","SAAT_sustained","correct",590,0,1,10,5,"M",30,"Correct Rejection",1,2017,2016-11-08,910,280,0.492063492063492
"562",17322,17394,"ADMIN-UCSF-bo058","SAAT_sustained","correct",590,0,1,10,5,"M",31,"Correct Rejection",1,2017,2016-11-08,910,280,0.492063492063492
"563",17323,17395,"ADMIN-UCSF-bo058","SAAT_sustained","correct",590,0,1,10,5,"M",32,"Correct Rejection",1,2017,2016-11-08,910,280,0.492063492063492
"564",17324,17396,"ADMIN-UCSF-bo058","SAAT_sustained","correct",590,0,1,10,5,"M",33,"Correct Rejection",1,2017,2016-11-08,910,280,0.492063492063492
"565",17325,17397,"ADMIN-UCSF-bo058","SAAT_sustained","correct",590,0,1,10,5,"M",34,"Correct Rejection",1,2017,2016-11-08,910,280,0.492063492063492
"566",17326,17398,"ADMIN-UCSF-bo058","SAAT_sustained","correct",590,0,1,10,5,"M",35,"Correct Rejection",1,2017,2016-11-08,910,280,0.492063492063492
"567",17327,17399,"ADMIN-UCSF-bo058","SAAT_sustained","correct",590,0,1,10,5,"M",36,"Correct Rejection",1,2017,2016-11-08,910,280,0.492063492063492
"568",17328,17400,"ADMIN-UCSF-bo058","SAAT_sustained","correct",590,0,1,10,5,"M",37,"Correct Rejection",1,2017,2016-11-08,910,280,0.492063492063492
"569",17329,17401,"ADMIN-UCSF-bo058","SAAT_impulsive","correct",460,0,1,10,5,"M",31,"Correct Rejection",1,2017,2016-11-08,1040,160,0.340909090909091
"570",17330,17402,"ADMIN-UCSF-bo058","SAAT_sustained","correct",590,0,1,10,5,"M",28,"Correct Rejection",1,2017,2016-11-08,910,280,0.492063492063492
"571",17331,17403,"ADMIN-UCSF-bo058","SAAT_sustained","correct",630,0,1,10,5,"M",39,"Correct Rejection",1,2017,2016-11-08,910,280,0.555555555555556
"572",17332,17404,"ADMIN-UCSF-bo058","SAAT_impulsive","correct",350,184.745967388153,1,10,5,"M",25,"Hit",1,2017,2016-11-08,1040,160,0.215909090909091
"573",17333,17405,"ADMIN-UCSF-bo058","SAAT_impulsive","correct",480,250.827014446258,1,10,5,"M",35,"Hit",1,2017,2016-11-08,1040,160,0.363636363636364
"574",17334,17406,"ADMIN-UCSF-bo058","SAAT_sustained","correct",580,269.70899105072,1,10,5,"M",3,"Hit",1,2017,2016-11-08,910,280,0.476190476190476
"575",17335,17407,"ADMIN-UCSF-bo058","SAAT_impulsive","correct",480,273.901998996735,1,10,5,"M",15,"Hit",1,2017,2016-11-08,1040,160,0.363636363636364
"576",17336,17408,"ADMIN-UCSF-bo058","SAAT_impulsive","correct",620,275.062024593353,1,10,5,"M",6,"Hit",1,2017,2016-11-08,1040,160,0.522727272727273
"577",17337,17409,"ADMIN-UCSF-bo058","SAAT_impulsive","correct",410,284.945011138916,1,10,5,"M",38,"Hit",1,2017,2016-11-08,1040,160,0.284090909090909
"578",17338,17410,"ADMIN-UCSF-bo058","SAAT_sustained","correct",630,288.981020450592,1,10,5,"M",40,"Hit",1,2017,2016-11-08,910,280,0.555555555555556
"579",17339,17411,"ADMIN-UCSF-bo058","SAAT_impulsive","correct",470,303.57700586319,1,10,5,"M",36,"Hit",1,2017,2016-11-08,1040,160,0.352272727272727
"580",17340,17412,"ADMIN-UCSF-bo058","SAAT_sustained","correct",590,303.884029388428,1,10,5,"M",2,"Hit",1,2017,2016-11-08,910,280,0.492063492063492
"581",17341,17413,"ADMIN-UCSF-bo058","SAAT_impulsive","correct",320,305.35101890564,1,10,5,"M",16,"Hit",1,2017,2016-11-08,1040,160,0.181818181818182
"582",17342,17414,"ADMIN-UCSF-bo058","SAAT_sustained","correct",600,307.304978370667,1,10,5,"M",10,"Hit",1,2017,2016-11-08,910,280,0.507936507936508
"583",17343,17415,"ADMIN-UCSF-bo058","SAAT_impulsive","correct",490,309.794008731842,1,10,5,"M",34,"Hit",1,2017,2016-11-08,1040,160,0.375
"584",17344,17416,"ADMIN-UCSF-bo058","SAAT_impulsive","correct",640,311.40398979187,1,10,5,"M",4,"Hit",1,2017,2016-11-08,1040,160,0.545454545454545
"585",17345,17417,"ADMIN-UCSF-bo058","SAAT_impulsive","correct",360,312.180995941162,1,10,5,"M",24,"Hit",1,2017,2016-11-08,1040,160,0.227272727272727
"586",17346,17418,"ADMIN-UCSF-bo058","SAAT_impulsive","correct",450,316.809952259064,1,10,5,"M",37,"Hit",1,2017,2016-11-08,1040,160,0.329545454545455
"587",17347,17419,"ADMIN-UCSF-bo058","SAAT_impulsive","correct",460,316.862046718597,1,10,5,"M",32,"Hit",1,2017,2016-11-08,1040,160,0.340909090909091
"588",17348,17420,"ADMIN-UCSF-bo058","SAAT_impulsive","correct",630,324.101030826569,1,10,5,"M",9,"Hit",1,2017,2016-11-08,1040,160,0.534090909090909
"589",17349,17421,"ADMIN-UCSF-bo058","SAAT_impulsive","correct",630,350.706994533539,1,10,5,"M",5,"Hit",1,2017,2016-11-08,1040,160,0.534090909090909
"590",17350,17422,"ADMIN-UCSF-bo058","SAAT_impulsive","correct",200,355.277001857758,0,10,5,"M",22,"Hit",1,2017,2016-11-08,1040,160,0.0454545454545455
"591",17351,17423,"ADMIN-UCSF-bo058","SAAT_impulsive","correct",330,360.368013381958,0,10,5,"M",40,"Hit",1,2017,2016-11-08,1040,160,0.193181818181818
"592",17352,17424,"ADMIN-UCSF-bo058","SAAT_sustained","correct",610,378.584027290344,1,10,5,"M",21,"Hit",1,2017,2016-11-08,910,280,0.523809523809524
"593",17353,17425,"ADMIN-UCSF-bo058","SAAT_sustained","correct",600,381.224989891052,1,10,5,"M",1,"Hit",1,2017,2016-11-08,910,280,0.507936507936508
"594",17354,17426,"ADMIN-UCSF-bo058","SAAT_impulsive","correct",560,403.087019920349,1,10,5,"M",14,"Hit",1,2017,2016-11-08,1040,160,0.454545454545455
"595",17355,17427,"ADMIN-UCSF-bo058","SAAT_sustained","correct",620,428.900957107544,1,10,5,"M",18,"Hit",1,2017,2016-11-08,910,280,0.53968253968254
"596",17356,17428,"ADMIN-UCSF-bo058","SAAT_impulsive","correct",600,437.31701374054,1,10,5,"M",11,"Hit",1,2017,2016-11-08,1040,160,0.5
"597",17357,17429,"ADMIN-UCSF-bo058","SAAT_impulsive","correct",380,438.179016113281,0,10,5,"M",29,"Hit",1,2017,2016-11-08,1040,160,0.25
"598",17358,17430,"ADMIN-UCSF-bo058","SAAT_impulsive","correct",620,440.78004360199,1,10,5,"M",10,"Hit",1,2017,2016-11-08,1040,160,0.522727272727273
"599",17359,17431,"ADMIN-UCSF-bo058","SAAT_impulsive","correct",340,487.897992134094,0,10,5,"M",26,"Hit",1,2017,2016-11-08,1040,160,0.204545454545455
"600",17360,17432,"ADMIN-UCSF-bo058","SAAT_sustained","correct",590,508.413970470429,1,10,5,"M",22,"Hit",1,2017,2016-11-08,910,280,0.492063492063492
"601",17361,17433,"ADMIN-UCSF-bo058","SAAT_impulsive","correct",640,526.064038276672,1,10,5,"M",8,"Hit",1,2017,2016-11-08,1040,160,0.545454545454545
"602",17362,17434,"ADMIN-UCSF-bo058","SAAT_sustained","correct",630,613.013982772827,1,10,5,"M",16,"Hit",1,2017,2016-11-08,910,280,0.555555555555556
"603",17363,17435,"ADMIN-UCSF-bo058","SAAT_impulsive","incorrect",600,275.831997394562,0,10,5,"M",7,"False Alarm",1,2017,2016-11-08,1040,160,0.5
"604",17364,17436,"ADMIN-UCSF-bo058","SAAT_sustained","incorrect",560,333.346009254456,0,10,5,"M",4,"False Alarm",1,2017,2016-11-08,910,280,0.444444444444444
"605",17365,17437,"ADMIN-UCSF-bo058","SAAT_impulsive","incorrect",420,463.037014007568,0,10,5,"M",30,"False Alarm",1,2017,2016-11-08,1040,160,0.295454545454545
"606",17366,17438,"ADMIN-UCSF-bo058","SAAT_sustained","no_response",590,600,0,10,5,"M",11,"Hit",1,2017,2016-11-08,910,280,0.492063492063492
"607",17367,17439,"ADMIN-UCSF-bo058","SAAT_impulsive","no_response",600,600,0,10,5,"M",1,"Miss",1,2017,2016-11-08,1040,160,0.5
"608",17368,17440,"ADMIN-UCSF-bo058","SAAT_sustained","no_response",550,630,0,10,5,"M",27,"Hit",1,2017,2016-11-08,910,280,0.428571428571429
"609",17369,17441,"ADMIN-UCSF-bo058","SAAT_sustained","no_response",590,630,0,10,5,"M",38,"Hit",1,2017,2016-11-08,910,280,0.492063492063492
"610",17370,17442,"ADMIN-UCSF-bo058","SAAT_impulsive","no_response",450,640,0,10,5,"M",33,"Hit",1,2017,2016-11-08,1040,160,0.329545454545455
"611",17371,17443,"ADMIN-UCSF-bo058","STROOP_CONGRUENT","correct",930,569.261968135834,1,10,5,"M",13,NA,1,2017,2016-11-08,1530,340,0.495798319327731
"612",17372,17444,"ADMIN-UCSF-bo058","STROOP_CONGRUENT","correct",1040,635.025978088379,1,10,5,"M",25,NA,1,2017,2016-11-08,1530,340,0.588235294117647
"613",17373,17445,"ADMIN-UCSF-bo058","STROOP_CONGRUENT","correct",1050,672.291994094849,1,10,5,"M",24,NA,1,2017,2016-11-08,1530,340,0.596638655462185
"614",17374,17446,"ADMIN-UCSF-bo058","STROOP_CONGRUENT","correct",1010,677.204012870789,1,10,5,"M",29,NA,1,2017,2016-11-08,1530,340,0.563025210084034
"615",17375,17447,"ADMIN-UCSF-bo058","STROOP_INCONGRUENT","correct",870,684.821963310242,1,10,5,"M",4,NA,1,2017,2016-11-08,2390,360,0.251231527093596
"616",17376,17448,"ADMIN-UCSF-bo058","STROOP_INCONGRUENT","correct",380,687.002003192902,0,10,5,"M",15,NA,1,2017,2016-11-08,2390,360,0.00985221674876847
"617",17377,17449,"ADMIN-UCSF-bo058","STROOP_INCONGRUENT","correct",700,688.184022903442,1,10,5,"M",14,NA,1,2017,2016-11-08,2390,360,0.167487684729064
"618",17378,17450,"ADMIN-UCSF-bo058","STROOP_CONGRUENT","correct",970,701.76899433136,1,10,5,"M",12,NA,1,2017,2016-11-08,1530,340,0.529411764705882
"619",17379,17451,"ADMIN-UCSF-bo058","STROOP_INCONGRUENT","correct",800,725.857973098755,1,10,5,"M",1,NA,1,2017,2016-11-08,2390,360,0.216748768472906
"620",17380,17452,"ADMIN-UCSF-bo058","STROOP_CONGRUENT","correct",1010,743.423044681549,1,10,5,"M",27,NA,1,2017,2016-11-08,1530,340,0.563025210084034
"621",17381,17453,"ADMIN-UCSF-bo058","STROOP_INCONGRUENT","correct",1020,744.481980800629,1,10,5,"M",8,NA,1,2017,2016-11-08,2390,360,0.32512315270936
"622",17382,17454,"ADMIN-UCSF-bo058","STROOP_CONGRUENT","correct",1020,745.518028736115,1,10,5,"M",33,NA,1,2017,2016-11-08,1530,340,0.571428571428571
"623",17383,17455,"ADMIN-UCSF-bo058","STROOP_INCONGRUENT","correct",1010,765.646040439606,1,10,5,"M",9,NA,1,2017,2016-11-08,2390,360,0.320197044334975
"624",17384,17456,"ADMIN-UCSF-bo058","STROOP_CONGRUENT","correct",800,773.657023906708,1,10,5,"M",1,NA,1,2017,2016-11-08,1530,340,0.38655462184874
"625",17385,17457,"ADMIN-UCSF-bo058","STROOP_CONGRUENT","correct",790,773.772001266479,1,10,5,"M",2,NA,1,2017,2016-11-08,1530,340,0.378151260504202
"626",17386,17458,"ADMIN-UCSF-bo058","STROOP_CONGRUENT","correct",990,783.277988433838,1,10,5,"M",21,NA,1,2017,2016-11-08,1530,340,0.546218487394958
"627",17387,17459,"ADMIN-UCSF-bo058","STROOP_INCONGRUENT","correct",790,790.638029575348,0,10,5,"M",2,NA,1,2017,2016-11-08,2390,360,0.211822660098522
"628",17388,17460,"ADMIN-UCSF-bo058","STROOP_INCONGRUENT","correct",860,791.42701625824,1,10,5,"M",13,NA,1,2017,2016-11-08,2390,360,0.246305418719212
"629",17389,17461,"ADMIN-UCSF-bo058","STROOP_CONGRUENT","correct",1030,794.863998889923,1,10,5,"M",32,NA,1,2017,2016-11-08,1530,340,0.579831932773109
"630",17390,17462,"ADMIN-UCSF-bo058","STROOP_CONGRUENT","correct",730,811.797976493835,0,10,5,"M",16,NA,1,2017,2016-11-08,1530,340,0.327731092436975
"631",17391,17463,"ADMIN-UCSF-bo058","STROOP_CONGRUENT","correct",850,812.67899274826,1,10,5,"M",14,NA,1,2017,2016-11-08,1530,340,0.428571428571429
"632",17392,17464,"ADMIN-UCSF-bo058","STROOP_INCONGRUENT","correct",940,831.161975860596,1,10,5,"M",12,NA,1,2017,2016-11-08,2390,360,0.285714285714286
"633",17393,17465,"ADMIN-UCSF-bo058","STROOP_INCONGRUENT","correct",980,849.976003170013,1,10,5,"M",11,NA,1,2017,2016-11-08,2390,360,0.305418719211823
"634",17394,17466,"ADMIN-UCSF-bo058","STROOP_CONGRUENT","correct",690,866.692006587982,0,10,5,"M",15,NA,1,2017,2016-11-08,1530,340,0.294117647058824
"635",17395,17467,"ADMIN-UCSF-bo058","STROOP_INCONGRUENT","correct",1000,866.886019706726,1,10,5,"M",10,NA,1,2017,2016-11-08,2390,360,0.315270935960591
"636",17396,17468,"ADMIN-UCSF-bo058","STROOP_CONGRUENT","correct",990,867.122948169708,1,10,5,"M",11,NA,1,2017,2016-11-08,1530,340,0.546218487394958
"637",17397,17469,"ADMIN-UCSF-bo058","STROOP_INCONGRUENT","correct",830,869.594991207123,0,10,5,"M",3,NA,1,2017,2016-11-08,2390,360,0.231527093596059
"638",17398,17470,"ADMIN-UCSF-bo058","STROOP_CONGRUENT","correct",1000,883.848011493683,1,10,5,"M",10,NA,1,2017,2016-11-08,1530,340,0.554621848739496
"639",17399,17471,"ADMIN-UCSF-bo058","STROOP_INCONGRUENT","correct",860,887.264013290405,0,10,5,"M",5,NA,1,2017,2016-11-08,2390,360,0.246305418719212
"640",17400,17472,"ADMIN-UCSF-bo058","STROOP_CONGRUENT","correct",1030,889.241993427277,1,10,5,"M",26,NA,1,2017,2016-11-08,1530,340,0.579831932773109
"641",17401,17473,"ADMIN-UCSF-bo058","STROOP_CONGRUENT","correct",940,936.951994895935,1,10,5,"M",6,NA,1,2017,2016-11-08,1530,340,0.504201680672269
"642",17402,17474,"ADMIN-UCSF-bo058","STROOP_CONGRUENT","correct",1000,945.501983165741,1,10,5,"M",30,NA,1,2017,2016-11-08,1530,340,0.554621848739496
"643",17403,17475,"ADMIN-UCSF-bo058","STROOP_CONGRUENT","correct",1010,955.885946750641,1,10,5,"M",9,NA,1,2017,2016-11-08,1530,340,0.563025210084034
"644",17404,17476,"ADMIN-UCSF-bo058","STROOP_INCONGRUENT","correct",900,985.437989234924,0,10,5,"M",6,NA,1,2017,2016-11-08,2390,360,0.266009852216749
"645",17405,17477,"ADMIN-UCSF-bo058","STROOP_CONGRUENT","correct",970,997.442960739136,0,10,5,"M",22,NA,1,2017,2016-11-08,1530,340,0.529411764705882
"646",17406,17478,"ADMIN-UCSF-bo058","STROOP_CONGRUENT","correct",1010,998.058974742889,1,10,5,"M",19,NA,1,2017,2016-11-08,1530,340,0.563025210084034
"647",17407,17479,"ADMIN-UCSF-bo058","STROOP_CONGRUENT","correct",1000,998.865008354187,1,10,5,"M",20,NA,1,2017,2016-11-08,1530,340,0.554621848739496
"648",17408,17480,"ADMIN-UCSF-bo058","STROOP_CONGRUENT","correct",1050,1060.62698364258,0,10,5,"M",35,NA,1,2017,2016-11-08,1530,340,0.596638655462185
"649",17409,17481,"ADMIN-UCSF-bo058","STROOP_CONGRUENT","no_response",780,800,0,10,5,"M",3,NA,1,2017,2016-11-08,1530,340,0.369747899159664
"650",17410,17482,"ADMIN-UCSF-bo058","STROOP_CONGRUENT","no_response",820,820,0,10,5,"M",4,NA,1,2017,2016-11-08,1530,340,0.403361344537815
"651",17411,17483,"ADMIN-UCSF-bo058","STROOP_CONGRUENT","no_response",860,860,0,10,5,"M",5,NA,1,2017,2016-11-08,1530,340,0.436974789915966
"652",17412,17484,"ADMIN-UCSF-bo058","STROOP_CONGRUENT","no_response",930,940,0,10,5,"M",7,NA,1,2017,2016-11-08,1530,340,0.495798319327731
"653",17413,17485,"ADMIN-UCSF-bo058","STROOP_CONGRUENT","no_response",970,970,0,10,5,"M",8,NA,1,2017,2016-11-08,1530,340,0.529411764705882
"654",17414,17486,"ADMIN-UCSF-bo058","STROOP_CONGRUENT","no_response",770,1010,0,10,5,"M",17,NA,1,2017,2016-11-08,1530,340,0.361344537815126
"655",17415,17487,"ADMIN-UCSF-bo058","STROOP_CONGRUENT","no_response",850,1010,0,10,5,"M",18,NA,1,2017,2016-11-08,1530,340,0.428571428571429
"656",17416,17488,"ADMIN-UCSF-bo058","STROOP_INCONGRUENT","no_response",940,1010,0,10,5,"M",7,NA,1,2017,2016-11-08,2390,360,0.285714285714286
"657",17417,17489,"ADMIN-UCSF-bo058","STROOP_CONGRUENT","no_response",1010,1020,0,10,5,"M",23,NA,1,2017,2016-11-08,1530,340,0.563025210084034
"658",17418,17490,"ADMIN-UCSF-bo058","STROOP_CONGRUENT","no_response",970,1050,0,10,5,"M",28,NA,1,2017,2016-11-08,1530,340,0.529411764705882
"659",17419,17491,"ADMIN-UCSF-bo058","STROOP_CONGRUENT","no_response",990,1050,0,10,5,"M",31,NA,1,2017,2016-11-08,1530,340,0.546218487394958
"660",17420,17492,"ADMIN-UCSF-bo058","STROOP_CONGRUENT","no_response",1010,1050,0,10,5,"M",34,NA,1,2017,2016-11-08,1530,340,0.563025210084034
"661",17421,17493,"ADMIN-UCSF-bo058","TASKSWITCH_Stay","correct",790,315.30499458313,1,10,5,"M",16,NA,1,2017,2016-11-08,6070,160,0.106598984771574
"662",17422,17494,"ADMIN-UCSF-bo058","TASKSWITCH_Switch","correct",680,333.085000514984,1,10,5,"M",7,NA,1,2017,2016-11-08,11040,160,0.0477941176470588
"663",17423,17495,"ADMIN-UCSF-bo058","TASKSWITCH_Stay","correct",870,461.52400970459,1,10,5,"M",12,NA,1,2017,2016-11-08,6070,160,0.120135363790186
"664",17424,17496,"ADMIN-UCSF-bo058","TASKSWITCH_Stay","correct",800,469.615995883942,1,10,5,"M",5,NA,1,2017,2016-11-08,6070,160,0.1082910321489
"665",17425,17497,"ADMIN-UCSF-bo058","TASKSWITCH_Stay","correct",800,471.300005912781,1,10,5,"M",1,NA,1,2017,2016-11-08,6070,160,0.1082910321489
"666",17426,17498,"ADMIN-UCSF-bo058","TASKSWITCH_Switch","correct",660,483.10798406601,1,10,5,"M",9,NA,1,2017,2016-11-08,11040,160,0.0459558823529412
"667",17427,17499,"ADMIN-UCSF-bo058","TASKSWITCH_Stay","correct",780,483.157992362976,1,10,5,"M",7,NA,1,2017,2016-11-08,6070,160,0.104906937394247
"668",17428,17500,"ADMIN-UCSF-bo058","TASKSWITCH_Switch","correct",790,487.19996213913,1,10,5,"M",2,NA,1,2017,2016-11-08,11040,160,0.0579044117647059
"669",17429,17501,"ADMIN-UCSF-bo058","TASKSWITCH_Stay","correct",840,517.777025699615,1,10,5,"M",10,NA,1,2017,2016-11-08,6070,160,0.115059221658206
"670",17430,17502,"ADMIN-UCSF-bo058","TASKSWITCH_Stay","correct",780,520.396947860718,1,10,5,"M",3,NA,1,2017,2016-11-08,6070,160,0.104906937394247
"671",17431,17503,"ADMIN-UCSF-bo058","TASKSWITCH_Stay","correct",550,528.388977050781,1,10,5,"M",18,NA,1,2017,2016-11-08,6070,160,0.065989847715736
"672",17432,17504,"ADMIN-UCSF-bo058","TASKSWITCH_Switch","correct",720,531.803011894226,1,10,5,"M",5,NA,1,2017,2016-11-08,11040,160,0.0514705882352941
"673",17433,17505,"ADMIN-UCSF-bo058","TASKSWITCH_Switch","correct",670,547.288954257965,1,10,5,"M",8,NA,1,2017,2016-11-08,11040,160,0.046875
"674",17434,17506,"ADMIN-UCSF-bo058","TASKSWITCH_Stay","correct",830,551.09304189682,1,10,5,"M",15,NA,1,2017,2016-11-08,6070,160,0.11336717428088
"675",17435,17507,"ADMIN-UCSF-bo058","TASKSWITCH_Switch","correct",640,551.328003406525,1,10,5,"M",10,NA,1,2017,2016-11-08,11040,160,0.0441176470588235
"676",17436,17508,"ADMIN-UCSF-bo058","TASKSWITCH_Switch","correct",780,566.556036472321,1,10,5,"M",3,NA,1,2017,2016-11-08,11040,160,0.0569852941176471
"677",17437,17509,"ADMIN-UCSF-bo058","TASKSWITCH_Stay","correct",790,567.835986614227,1,10,5,"M",2,NA,1,2017,2016-11-08,6070,160,0.106598984771574
"678",17438,17510,"ADMIN-UCSF-bo058","TASKSWITCH_Stay","correct",850,578.984975814819,1,10,5,"M",14,NA,1,2017,2016-11-08,6070,160,0.116751269035533
"679",17439,17511,"ADMIN-UCSF-bo058","TASKSWITCH_Stay","correct",790,581.889986991882,1,10,5,"M",6,NA,1,2017,2016-11-08,6070,160,0.106598984771574
"680",17440,17512,"ADMIN-UCSF-bo058","TASKSWITCH_Switch","correct",800,618.349969387054,1,10,5,"M",1,NA,1,2017,2016-11-08,11040,160,0.0588235294117647
"681",17441,17513,"ADMIN-UCSF-bo058","TASKSWITCH_Stay","correct",710,648.775041103363,1,10,5,"M",17,NA,1,2017,2016-11-08,6070,160,0.0930626057529611
"682",17442,17514,"ADMIN-UCSF-bo058","TASKSWITCH_Switch","correct",760,703.30399274826,1,10,5,"M",4,NA,1,2017,2016-11-08,11040,160,0.0551470588235294
"683",17443,17515,"ADMIN-UCSF-bo058","TASKSWITCH_Stay","correct",860,831.959009170532,1,10,5,"M",13,NA,1,2017,2016-11-08,6070,160,0.11844331641286
"684",17444,17516,"ADMIN-UCSF-bo058","TASKSWITCH_Stay","incorrect",230,599.87199306488,0,10,5,"M",19,NA,1,2017,2016-11-08,6070,160,0.011844331641286
"685",17445,17517,"ADMIN-UCSF-bo058","TASKSWITCH_Stay","incorrect",830,700.938999652863,0,10,5,"M",11,NA,1,2017,2016-11-08,6070,160,0.11336717428088
"686",17446,17518,"ADMIN-UCSF-bo058","TASKSWITCH_Switch","incorrect",640,706.640005111694,0,10,5,"M",6,NA,1,2017,2016-11-08,11040,160,0.0441176470588235
"687",17447,17519,"ADMIN-UCSF-bo058","TASKSWITCH_Stay","incorrect",760,717.624008655548,0,10,5,"M",4,NA,1,2017,2016-11-08,6070,160,0.101522842639594
"688",17448,17520,"ADMIN-UCSF-bo058","TASKSWITCH_Stay","no_response",760,800,0,10,5,"M",8,NA,1,2017,2016-11-08,6070,160,0.101522842639594
